time,gyro_x,gyro_y,gyro_z,setpoint_roll,setpoint_pitch,setpoint_yaw,throttle
0.0,0.040064216667609925,0.24522362687496183,0.22893344430175583,0.0,0.1783068598768347,0.1932653061713073,0.37982264349025796
0.001,0.093685228345393,0.28105206602237126,0.22922079354314076,0.006785695469794662,0.18244377717738547,0.19448798360832317,0.3894325338839819
0.002,0.12835223298498838,0.30041356738406927,0.2348305521233754,0.013570522990037852,0.18656756783340503,0.1957051136472884,0.383826453097488
0.003,0.08646083777661213,0.23614835277663673,0.21987846242374817,0.020353614722196406,0.19067793514234255,0.19691666157189464,0.38602304193683123
0.004,0.01764905334983105,0.16382278699653935,0.19114725398124563,0.027134103049759564,0.19477458336744344,0.19812259282505268,0.3867644604858978
0.005,-0.04537023714595123,0.08426298076794692,0.1678956698362175,0.033911120689214716,0.19885721775902732,0.1993228730098782,0.38045783792444376
0.006,-0.07890930973755067,0.08277945989447413,0.1465379941274527,0.040683800800980455,0.20292554457569478,0.2005174678906727,0.37120912368954245
0.007,-0.06498809729565166,0.1261634929266348,0.15488418155707095,0.047451277100282956,0.20697927110546196,0.20170634339390028,0.39531638812850356
0.008,-0.04129389445047224,0.16073271335480446,0.15148930134066604,0.05421268396796135,0.21101810568682092,0.20288946560915913,0.405403556435346
0.009,0.0003282092542394796,0.19591676877920222,0.14522383996671734,0.060967156561187896,0.21504175772972411,0.2040668007901491,0.406349729916123
0.01,0.006140725363472654,0.20571460470811298,0.16758562230627638,0.067713830924089,0.2190499377364923,0.20523831535563422,0.3799580183610768
0.011,0.012561529308905483,0.19978203111234266,0.17397548928321707,0.07445184409825262,0.22304235732264358,0.2064039758904003,0.3779572826358817
0.012,0.04460247528401231,0.24417496295717783,0.1989480007895367,0.08118033423310818,0.22701872923764224,0.20756374914620826,0.3802619788454588
0.013,0.06485747448475913,0.22030141654539193,0.18630718466756727,0.08789844069616477,0.23097876738556622,0.20871760204274242,0.3849613178421839
0.014,0.07861534420261523,0.23761597316090607,0.21131839827134574,0.09460530418309357,0.2349221868456914,0.20986550166855403,0.38659979541747375
0.015,0.15452319690552507,0.23105769153533867,0.2222412175155284,0.10130006682764033,0.23884870389299154,0.2110074152819999,0.37541210758783644
0.016,0.1643955921894828,0.20223203677301996,0.22813962907390925,0.10798187231135387,0.24275803601855162,0.21214331031217656,0.3697883027193914
0.017,0.07998896303574904,0.14519185243578675,0.2076062876429679,0.11464986597311683,0.24664990194989436,0.2132731543598491,0.3883022859483595
0.018,0.04062483453530583,0.12858855943376632,0.20581084055020907,0.12130319491846409,0.2505240216712175,0.21439691519837514,0.3454958759634358
0.019,-0.01743290308396277,0.16044351654880412,0.18545377750100162,0.12794100812867554,0.2543801164435405,0.2155145607746245,0.38681067166820554
0.02,-0.036518401950246956,0.2224978030138263,0.18612361363551785,0.1345624565696287,0.25821790882475965,0.216626059209893,0.3768393118570512
0.021,0.018885227308605517,0.3008423300617206,0.15026738531961756,0.14116669330039763,0.26203712268960955,0.21773137880081186,0.39769582837784717
0.022,0.0768048906613754,0.31032187976272396,0.15448212883705795,0.14775287358158398,0.26583748324953044,0.21883048802025215,0.4010632446371385
0.023,0.16427065378327257,0.33381771616131206,0.17294575662604308,0.15432015498336663,0.2696187170724385,0.21992335551822387,0.4015041883514868
0.024,0.24734935474930472,0.29581529306372056,0.18866659594944857,0.16086769749325572,0.2733805521023993,0.2210099501227702,0.3846494507433087
0.025,0.24821680768830212,0.24183159301364165,0.19295691696887574,0.16739466362353755,0.2771227176792018,0.22209024084085657,0.3753426201495908
0.026,0.20928433520279183,0.18438275244938682,0.2304337553065313,0.1739002185183966,0.2808449445578323,0.22316419685925482,0.37934673625962145
0.027,0.1436726683484864,0.1931482519551358,0.24978589560104247,0.1803835300607009,0.2845469649278461,0.22423178754542192,0.39273062873404585
0.028,0.10872805455851844,0.18008403804294076,0.24972898245707761,0.1868437689784369,0.28822851243263614,0.22529298244837379,0.36968634392468985
0.029,0.08402768409498189,0.2112498786893232,0.23783292376940843,0.19328010895078082,0.2918893221885974,0.22634775129955387,0.40631668911404445
0.03,0.06531331745988518,0.22132903482834698,0.22053290695073766,0.19969172671379196,0.295529130804185,0.22739606401369641,0.3857838729107093
0.031,0.10525023832191907,0.30570440263408044,0.22043762657410093,0.20607780216571572,0.29914767639886425,0.22843789068968462,0.3959108157604583
0.032,0.13267491475438947,0.34169902073722935,0.2015192135519513,0.2124375184718814,0.30274469862195375,0.22947320161140367,0.3686888769828086
0.033,0.16471787535418117,0.3621669556741728,0.17704486782772924,0.21877006216918268,0.3063199386713566,0.23050196724858799,0.37911142486330035
0.034,0.21827477125264577,0.3416994908712969,0.15882575579837285,0.2250746232701266,0.3098731393121811,0.23152415825766384,0.36751223832813884
0.035,0.2546818457817746,0.32091816435732756,0.16824483727524878,0.23135039536643792,0.313404044895249,0.23253974548258619,0.4027918008947544
0.036,0.26630265018057103,0.27249527135645873,0.18818615747791936,0.23759657573220588,0.3169124013754882,0.23354869995567032,0.3887721688839442
0.037,0.2667095572787473,0.20915448872245274,0.2025053135280293,0.24381236542655987,0.32039795633021234,0.23455099289841808,0.3977073438078529
0.038,0.2562535688962049,0.16918299538103285,0.2110337811860418,0.24999696939586072,0.3238604589772811,0.23554659572233871,0.39176966688033615
0.039,0.23608803453021812,0.21898497890702168,0.24129962041223263,0.2561495965753951,0.3272996601931447,0.23653548002976438,0.39678738129740115
0.04,0.22504082795011002,0.29252884391070777,0.24591765089862086,0.26226945999055973,0.33071531253076747,0.23751761761466006,0.3872733158267081
0.041,0.14256872766390685,0.3559594915058832,0.24466990399503413,0.26835577685752204,0.33410717023743164,0.23849298046342798,0.3890369680329441
0.042,0.1391751552631805,0.42117082774346215,0.240161603049342,0.27440776868334515,0.3374749892724189,0.23946154075570703,0.39053558240060904
0.043,0.17169216832305512,0.40945401959810707,0.2359323021256835,0.28042466136556393,0.34081852732456913,0.2404232708651657,0.39666076688063323
0.044,0.21614704276974456,0.37271819709414,0.21891708540365853,0.2864056852911996,0.34413754382971434,0.24137814336029068,0.3971353828576589
0.045,0.29821599296822,0.3087864591360637,0.20191093842958815,0.29235007543519936,0.34743179998798657,0.24232613100516884,0.4258439382898915
0.046,0.3262572995801283,0.2276124186743486,0.2028675999990461,0.2982570714582905,0.35070105878100016,0.24326720676026434,0.41244261409724264
0.047,0.3677431349027276,0.24562165366904348,0.20280030680896005,0.30412591780423376,0.353945084988904,0.24420134378318967,0.3710749349439408
0.048,0.39878244013001907,0.29034257040940387,0.19791559495831082,0.3099558637964663,0.35716364520730626,0.24512851542947142,0.3908593852754086
0.049,0.3271250159274049,0.3185353733099918,0.19742907796876782,0.31574616373411873,0.36035650786406714,0.24604869525331038,0.3878624703042276
0.05,0.26143823496192226,0.3568515442773721,0.19905336960053266,0.32149607698739796,0.36352344323596003,0.24696185700833562,0.4082513141859621
0.051,0.22689359593054112,0.3620776231017585,0.20371856862637916,0.327204868092319,0.3666642234652005,0.24786797464835308,0.3892572594568223
0.052,0.21533979580299514,0.39887626614236865,0.22416810333677537,0.3328718068447784,0.3697786225758397,0.24876702232808878,0.398774146603197
0.053,0.2091118028709385,0.38559217699783516,0.2460801142223294,0.3384961683939525,0.37286641649002406,0.2496589744039259,0.3653143439613436
0.054,0.2382462940994046,0.3857846035568558,0.2645303683018999,0.3440772333350133,0.37592738304411616,0.250543805434636,0.375352235535008
0.055,0.291813696863231,0.3871272885383707,0.2834137799598206,0.3496142878011457,0.3789613020046805,0.2514214901821049,0.4187792833752435
0.056,0.3659178778312074,0.40458204387942265,0.28409930000432604,0.3551066235548577,0.38196795508432807,0.2522920036120525,0.3944309760771978
0.057,0.36363511333174037,0.3393818226825728,0.2540482690802656,0.3605535380785704,0.3849471259574226,0.2531553208947469,0.38200275911931103
0.058,0.41847070454061036,0.2854905121947298,0.22227214541108403,0.36595433466447547,0.38789860027564443,0.25401141740571237,0.3970549238985874
0.059,0.4358498890530651,0.2842034801186267,0.19818598935511664,0.3713083225036507,0.390822165683413,0.2548602687264321,0.38165991789740694
0.06,0.41614776207345866,0.3029581894751433,0.17595745520231834,0.37661481677442027,0.39371761183316567,0.2557018506450443,0.391052252494181
0.061,0.38272334741533665,0.3627375857168327,0.17250386206458315,0.3818731387299493,0.3965847304004917,0.2565361391570331,0.37717738705851844
0.062,0.3169949758367618,0.42688156169795777,0.18779129478337764,0.3870826157850616,0.39942331509912116,0.25736311046591315,0.38530017263414545
0.063,0.28141218264166673,0.47812096816338256,0.22920698565603811,0.3922425816022693,0.40223316169576695,0.2581827409839082,0.38992476938938725
0.064,0.284934133126873,0.4914094531994638,0.24604797223015085,0.39735237617700286,0.40501406802481943,0.25899500733262415,0.4085251412584854
0.065,0.29937092393645,0.42671117337402975,0.2657882407061003,0.402411345922032,0.4077658340028916,0.25979988634371565,0.40080119872187653
0.066,0.35861282713058695,0.37356083679977176,0.27463821742147465,0.4074188437510644,0.4104882616432153,0.2605973550595471,0.40305078943527145
0.067,0.41746857717819313,0.312819364573318,0.27464050253318595,0.4123742291615143,0.41318115506988584,0.2613873907338475,0.3952350167043387
0.068,0.46596463106866726,0.30558011975946936,0.2706666315381908,0.41727686831642813,0.4158443205319554,0.262169970832359,0.40557427027175674
0.069,0.5117650402565839,0.33030840000366546,0.24879125984182565,0.4221261341255579,0.4184775664173728,0.2629450730334798,0.38537357539514067
0.07,0.467174748663469,0.35433000608583304,0.2510377621756294,0.4269214063255712,0.42108070326677016,0.263712675228901,0.38721901770021144
0.071,0.43323636256866427,0.4264416038409542,0.2458915414705322,0.43166207155938857,0.42365354378709424,0.2644727555242368,0.40105822109849654
0.072,0.41873121782555783,0.4689540419077503,0.25201713716566576,0.43634752345463745,0.42619590286508174,0.2652252922396495,0.39297295546152144
0.073,0.3834934297529495,0.492900065808955,0.22598623570853935,0.4409771627012117,0.4287075975805783,0.26597026391046735,0.39631212647368386
0.074,0.3698580218142347,0.4728849456580901,0.2235362226554091,0.4455503971279292,0.43118844721969934,0.2667076492877971,0.3946641623541797
0.075,0.3593403996739503,0.4600430377710093,0.21813991033552144,0.45006664177827566,0.43363827328783205,0.26743742733913023,0.41183065613353104
0.076,0.4020237882465626,0.42124131813669335,0.20838361533788055,0.4545253189852255,0.4360568995224782,0.26815957724894235,0.41261130816671937
0.077,0.40859243647453897,0.40751766149365926,0.20018673424662678,0.45892585844513056,0.43844415190593594,0.2688740784192873,0.38958606192137296
0.078,0.4243299121835558,0.32388423178736275,0.22861895797938128,0.46326769729066675,0.4407998586778199,0.2695809104703849,0.3761369531284689
0.079,0.45858455942599374,0.32298118018338284,0.2646080561117522,0.46755028016282996,0.44312385034741975,0.2702800532412015,0.38887271280467456
0.08,0.5175696201389804,0.3762628933301429,0.30539004543036247,0.4717730592819713,0.4454159597058945,0.27097148679002575,0.3868024001735473
0.081,0.562504605755981,0.4289524678694092,0.30026914456560466,0.47593549451786243,0.4476760218383028,0.2716551913950371,0.40770210424360037
0.082,0.531160363938713,0.4971572242496259,0.2926651675541401,0.48003705345878334,0.44990387413546895,0.27233114755486815,0.40892225191333503
0.083,0.5142749716901883,0.5435086415296506,0.27381073272859935,0.48407721147962257,0.45209935630568215,0.27299933598916143,0.3856585057617915
0.084,0.45521135837808496,0.5310343462957196,0.24944515754740126,0.48805545180898097,0.4542623103862295,0.2736597376391187,0.38913240826179
0.085,0.42382737339853144,0.48794190660462766,0.24189805311289836,0.4919712655952713,0.45639258075476075,0.274312333668045,0.38059335727542776
0.086,0.3589322760272251,0.39703062357321056,0.18935127535714494,0.4958241519718052,0.45849001414048574,0.27495710546188584,0.4001090130265128
0.087,0.3544504988843531,0.3639190222475954,0.19705648909420617,0.4996136181208578,0.4605544596352021,0.2755940346297579,0.3981124094125867
0.088,0.4270234224302471,0.38604526523717697,0.2239453467376299,0.5033391793367038,0.4625857687041524,0.2762231030044739,0.40827575943574446
0.089,0.5114087912661521,0.4011448518099137,0.24913748018830667,0.5070003590876154,0.46458379519671167,0.27684429264306076,0.4049267194455443
0.09,0.578301320998516,0.4480154143539238,0.26210963121380665,0.510596689076815,0.4665483953569021,0.27745758582727104,0.40643838095930257
0.091,0.606879170522021,0.4459069976519404,0.27916089072818623,0.5141277093023743,0.46847942783373725,0.2780629650640888,0.3807666772484374
0.092,0.6092640867740687,0.49551181042201314,0.2815606672707401,0.5175929681160526,0.4703767536913906,0.27866041308622824,0.3919095006414603
0.093,0.5654249236733573,0.48948361511852345,0.2795580603738279,0.5209920222810663,0.4722402364191934,0.27924991285262624,0.4109668469396985
0.094,0.47450304459486303,0.4791379746239923,0.2759749793091926,0.5243244370287835,0.4740697419414551,0.2798314475489285,0.39327178682302644
0.095,0.44391393774919974,0.49063395732916915,0.2825081093527157,0.5275897861143337,0.47586513862711116,0.28040500058796936,0.38035848538443295
0.096,0.42489207930560047,0.5203372174934984,0.2789016635266052,0.530787651871129,0.47762629729919265,0.2809705556102443,0.4097396810538151
0.097,0.4756547158726014,0.4762079652657422,0.2641385484101849,0.5339176252642865,0.47935309124412145,0.2815280964843772,0.3932711108684379
0.098,0.48457760590312426,0.43553732779718385,0.2515997011006721,0.5369793059429488,0.48104539622082637,0.28207760730758025,0.4131043738535278
0.099,0.5288673532586021,0.3952024475125632,0.23571830577005884,0.5399723022914908,0.4827030904696825,0.2826190724061071,0.40028614672165785
0.1,0.5456544482740834,0.3743422622605768,0.22713100351674023,0.5428962314796117,0.4843260547212719,0.2831524763357008,0.397334837731236
0.101,0.5748182450259082,0.3929478132689522,0.221464521587098,0.5457507195113019,0.4859141722049642,0.2836778038820336,0.41717406355866254
0.102,0.5411320468344034,0.47392791092819136,0.2243649324799963,0.5485354012726805,0.487467328657319,0.28419504006114116,0.38533816131177634
0.103,0.570362037615977,0.5393004004857751,0.2505048191904515,0.551249920578697,0.4889854123303065,0.2847041701198499,0.41833489274264996
0.104,0.6188308271320279,0.6133605417986959,0.2736015088772852,0.5538939302186895,0.4904683139993478,0.285205179536198,0.3936061303679279
0.105,0.6128492594377901,0.5751473987604582,0.2895066195248548,0.5564670920007967,0.49191592697117337,0.28569805401984927,0.40338095815978037
0.106,0.5874260418318696,0.5261521891706099,0.2866726795218339,0.5589690767952155,0.4933281470914996,0.286182779512501,0.4036484334090975
0.107,0.5290503775850349,0.4380237633384866,0.3030028129998068,0.5613995645762992,0.4947048727525228,0.2866593421882848,0.3966151780281481
0.108,0.46168944971813314,0.38522718502177633,0.3041995583975491,0.5637582444634921,0.4960460049002293,0.2871277284541611,0.39274924200822603
0.109,0.44428158573380716,0.3918230309043747,0.285731953029969,0.5660448147610933,0.4973514470415229,0.28758792495030694,0.3976106598436276
0.11,0.4370656355172567,0.3889714707285234,0.27186898242135643,0.5682589829968466,0.4986211052511668,0.28803991855049654,0.3900276590840558
0.111,0.5291447289161139,0.4871059514431117,0.26473856246406585,0.5704004659593499,0.49985488817854207,0.28848369636247634,0.42589977745212393
0.112,0.6323030700317371,0.5560253989937202,0.24515488767934543,0.5724689897342811,0.5010527070542197,0.28891924572833233,0.3967364697170417
0.113,0.7099451756954129,0.5848715204637481,0.2209269056538219,0.574464289739433,0.5022144756963476,0.2893465542248513,0.4165711531409221
0.114,0.7024480930120737,0.5475112322178655,0.2218828714273671,0.5763861107585568,0.5033401105168517,0.2897656096638748,0.4151435593196845
0.115,0.6665916654813472,0.5329417213690033,0.23606156772871598,0.5782342069740058,0.5044295305274494,0.29017640009264756,0.40732629133241294
0.116,0.6074946578953189,0.5232798964802725,0.24804701597060927,0.5800083419981777,0.5054826573454771,0.2905789137941574,0.40149658953610445
0.117,0.5224981057673397,0.463594549490553,0.2745024257057223,0.581708288903751,0.5064994151995297,0.2909731392874704,0.40560367633431893
0.118,0.4623946588116433,0.4511826233051849,0.2796080112540366,0.5833338302527105,0.5074797309349116,0.2913590653280576,0.41029784025804916
0.119,0.4814272177154038,0.4220936863343027,0.3208941151473161,0.5848847581241597,0.5084235340189011,0.29173668090811644,0.40479088602972474
0.12,0.521412077043243,0.43964314528428866,0.3254204496982806,0.5863608741409161,0.5093307565458244,0.2921059752568839,0.3849376905490905
0.121,0.5789131595348104,0.4505148884045458,0.31438113241059484,0.5877619894948845,0.5102013332419421,0.29246693784094463,0.38207230897152755
0.122,0.6321880161822749,0.5130865823817362,0.2713200493963848,0.5890879249712079,0.5110352014701446,0.29281955836453066,0.42215322209026457
0.123,0.61290133328714,0.5309201629511109,0.2729664070960656,0.5903385109711906,0.5118323012344594,0.2931638267698154,0.37258206742505184
0.124,0.6403255768670582,0.613782025833865,0.2563705523521926,0.5915135875339912,0.5125925751843682,0.29349973323720063,0.40670007910026085
0.125,0.6373490038850335,0.5599650395343858,0.23878880012570472,0.5926130043570826,0.5133159686189318,0.29382726818559624,0.40168529612279996
0.126,0.6084371119933237,0.5145646482970766,0.2373008682081497,0.5936366208154776,0.5140024294907273,0.2941464222726938,0.4065877730467555
0.127,0.6191713381140416,0.4883037451032931,0.2506249820259638,0.5945843059797161,0.5146519084095917,0.2944571863952328,0.39113163727423494
0.128,0.6290444816556715,0.4501545587199361,0.26490368332345815,0.5954559386326114,0.5152643586461765,0.29475955168926066,0.4091723986825183
0.129,0.6185324739603947,0.44945529591712824,0.2732535349610872,0.5962514072847557,0.5158397361353088,0.2950535095303852,0.40758944839440703
0.13,0.5289647068866623,0.4436455907258499,0.2717965028544313,0.5969706101887801,0.5163779994791624,0.29533905153402074,0.4384023261204236
0.131,0.5277374642376311,0.5078920011079544,0.2772486338043903,0.5976134553523691,0.5168791099502363,0.2956161695556273,0.4069828312048569
0.132,0.5232115706148124,0.535810923968753,0.29286749173179244,0.5981798605500276,0.517343031494141,0.295884855690943,0.4217547288600767
0.133,0.5311339106403962,0.5213518479102509,0.30255480609050556,0.5986697533335973,0.5177697307321923,0.2961451022762092,0.3877444677552747
0.134,0.5832352960993539,0.5186011643571179,0.30231740165387566,0.5990830710415246,0.5181591769638133,0.2963969018883895,0.4181225792238714
0.135,0.6921813966814461,0.5602542513301251,0.32411271352875465,0.5994197608068748,0.518511342168743,0.2966402473453811,0.40874940576681723
0.136,0.7391847497570474,0.5672270627490187,0.31241249995293974,0.5996797795640945,0.5188262010090525,0.29687513170621993,0.40942363215421
0.137,0.741073097978062,0.546709296300286,0.28505460574164604,0.5998630940545199,0.519103730830968,0.2971015482712785,0.4097421832856898
0.138,0.6723423782295156,0.49525867350524794,0.25295880836915646,0.5999696808306311,0.5193439116665003,0.29731949058245694,0.4269679625551802
0.139,0.5697221302848894,0.4770595539247242,0.23588456980516898,0.5999995262590511,0.5195467262348825,0.2975289524233673,0.4097056526537223
0.14,0.5351020080087148,0.4330812838292936,0.2248866774522202,0.5999526265222896,0.5197121599438121,0.29772992781951096,0.3973873797840051
0.141,0.4887117974205143,0.41764193087455265,0.21594825792679365,0.5998289876192316,0.5198402008905019,0.2979224110384488,0.39955798386909247
0.142,0.4695183112699177,0.4688972155057549,0.24745714570867056,0.5996286253643694,0.5199308398625355,0.2981063965899648,0.4169071168031388
0.143,0.5565561516079758,0.5527515948325561,0.29177626761136116,0.5993515653857808,0.5199840703385311,0.29828187922622273,0.41262334939550616
0.144,0.6398827023433599,0.6304556562244426,0.32069842415256944,0.5989978431218499,0.51999988848861,0.2984488539419158,0.3890404473697532
0.145,0.6932303829219943,0.6521295019411671,0.3229722781828966,0.5985675038167351,0.5199782931746723,0.2986073159744093,0.4137340309281614
0.146,0.6708888365996446,0.6099927159983235,0.3301970933577241,0.5980606025145816,0.5199192859504789,0.2987572608038766,0.3947223687119785
0.147,0.6789745968218962,0.5276881674003578,0.3112048836571764,0.597477204052481,0.5198228710615397,0.298898684153428,0.41312167132017924
0.148,0.6678344314082988,0.4706705996826217,0.297418330306532,0.5968173830521776,0.519689055444808,0.2990315819892327,0.39834797476121453
0.149,0.6369625297981432,0.3776881107206123,0.2640376671421899,0.5960812239105241,0.5195178487281817,0.299155950520634,0.4047888405124108
0.15,0.5821800228913435,0.3997628775705876,0.25539952713550523,0.5952688207886867,0.5193092632298102,0.2992717862002571,0.4017808678183251
0.151,0.5732868465126384,0.4896580915641452,0.2574202299730905,0.5943802776001001,0.5190633139572082,0.29937908572411065,0.42669742288576673
0.152,0.5888785058961662,0.5667393685746699,0.2558917087543704,0.5934157079971771,0.5187800186061763,0.2994778460316808,0.4134444875713019
0.153,0.5602001638274487,0.5882413625996398,0.268042674323011,0.5923752353567712,0.5184593975595272,0.2995680643060185,0.4239074676950817
0.154,0.574403258868356,0.6146166728482424,0.2605832603633133,0.5912589927643949,0.5181014738856199,0.29964973797382,0.4436684090616379
0.155,0.5616631764804366,0.5625904494213374,0.2682754431765964,0.5900671229971978,0.517706273336699,0.29972286470549986,0.40963921848254325
0.156,0.623631102243326,0.5300452206194255,0.2638062863007486,0.5887997785057041,0.5172738243470433,0.29978744241525784,0.42725308205467294
0.157,0.6556778549675246,0.5071212181567724,0.271455205342253,0.5874571213943123,0.516804158030918,0.29984346926113825,0.4009873265457838
0.158,0.6761361452944262,0.48505928965846495,0.2960958041516659,0.5860393234005609,0.5162973081803379,0.2998909436450823,0.42459087575387366
0.159,0.7316376920274528,0.47736223251326904,0.3197569818981061,0.5845465658731619,0.5157533112626351,0.29992986421297396,0.39999372526922805
0.16,0.6793861827363845,0.5059921798970636,0.3241383224839588,0.5829790397488044,0.5151722064178357,0.29996022985467846,0.40961429187927256
0.161,0.6006556621996348,0.4840928619862309,0.31573067493466517,0.5813369455277321,0.514554035455843,0.2999820397040738,0.4164291962887568
0.162,0.5308421822198438,0.4767011463656615,0.3080582375434856,0.5796204932480982,0.5138988428534301,0.29999529313907575,0.41846877895996504
0.163,0.5007895948609976,0.5107843124748725,0.2983481092278125,0.5778299024590987,0.5132066757510398,0.29999998978165543,0.39501867304382604
0.164,0.49836506530127855,0.5596945495909712,0.2756065271277545,0.575965402192891,0.5124775839493921,0.2999961294978501,0.4000362668846203
0.165,0.5406613969315693,0.6053102037293441,0.22885995326069133,0.5740272309352983,0.511711619905902,0.29998371239776694,0.4179291167232761
0.166,0.5641311334639917,0.596290512001223,0.2287929991271775,0.5720156365953051,0.5109088387309045,0.29996273883557995,0.40633025132616873
0.167,0.6289519399405941,0.6111964817856371,0.23020872494180028,0.5699308764733476,0.5100692981836904,0.29993320940951995,0.394125750698761
0.168,0.6925351365504511,0.4982293696482513,0.2501010053299295,0.5677732172284031,0.5091930586683496,0.2998951249618575,0.41019324303916255
0.169,0.6768611031909595,0.44759570001955046,0.2706551444764952,0.5655429348438814,0.5082801832294255,0.2998484865788785,0.4097682850698422
0.17,0.6580236265508224,0.40262260842511877,0.30472007936322054,0.5632403145923244,0.507330737547379,0.2997932955908538,0.413469850365203
0.171,0.5980388928942204,0.43627783543392473,0.31490965397840176,0.5608656509989173,0.5063447899338631,0.2997295535720009,0.4178486419573243
0.172,0.572856765950239,0.5186983014922294,0.3240548774085552,0.5584192478038159,0.5053224113268076,0.29965726234043893,0.4172363859159382
0.173,0.5569380274108098,0.5226533271957977,0.3188166310906396,0.5559014179232964,0.5042636752853149,0.2995764239581372,0.40258126387259535
0.174,0.5006475948780718,0.564024185826836,0.3047385097302914,0.5533124834097296,0.5031686579843686,0.29948704073085614,0.4070201185949724
0.175,0.5073136613596843,0.6006280804405896,0.2849478495865072,0.5506527754103887,0.5020374382093516,0.29938911520808137,0.42323419147919306
0.176,0.5200936512441582,0.585602314593907,0.275241124805837,0.5479226341250918,0.5008700973503782,0.2992826501829514,0.405733123337168
0.177,0.5118539413222885,0.5365942509175645,0.2560921435772982,0.5451224087626877,0.499666719396438,0.2991676486921775,0.407660799175831
0.178,0.5610904131917568,0.5136106570904051,0.2526002214189159,0.5422524574963893,0.4984273909293529,0.2990441140159575,0.3945011845252376
0.179,0.6405874318649603,0.46379174160913683,0.2425344461308577,0.5393131474179597,0.4971522011175479,0.2989120496778819,0.41235870484062265
0.18,0.650947644436123,0.411618356616104,0.2552147635955508,0.5363048544907583,0.4958412417096352,0.2987714594448335,0.4169965203519104
0.181,0.6411926488615605,0.4056604887820425,0.2575670825869889,0.5332279635016516,0.4944946070278132,0.2986223473268802,0.38929770766028415
0.182,0.6103528131973718,0.42087975343136325,0.2802348952400123,0.5300828680117955,0.4931123939610799,0.29846471757716003,0.4003109203378379
0.183,0.6038814846088733,0.4802706496533302,0.2977517550756861,0.526869970306296,0.49169470195826226,0.29829857469176047,0.3962434377693435
0.184,0.5266733543013168,0.5645179144096933,0.3046298269312773,0.5235896813427526,0.49024163302086043,0.29812392340958976,0.4229145900755657
0.185,0.47818846719815844,0.5935273463673327,0.29603337979573835,0.5202424206986941,0.4887532916957091,0.29794076871224195,0.39065628745790204
0.186,0.43784276671485206,0.6118518818356371,0.30043933646519094,0.51682861651791,0.48722978506745546,0.2977491158238548,0.4128103738688646
0.187,0.48234221115695985,0.5374870993911444,0.29400502869775635,0.513348705455688,0.48567122275085467,0.2975489702109606,0.42251896789004756
0.188,0.5503652360507263,0.47411101293610974,0.2957880855410822,0.5098031326229618,0.48407771688288287,0.2973403375823306,0.4163084614328551
0.189,0.5536444734667089,0.4108480646849914,0.2939107410728187,0.5061923515293774,0.4824493821146695,0.2971232238888116,0.40892502382585344
0.19,0.5938777849010494,0.37989507731614264,0.2736634221335432,0.5025168240252851,0.48078633560324774,0.2968976353231571,0.4185120210178715
0.191,0.6333516794334911,0.44626552157563204,0.2671030120992212,0.4987770202426651,0.4790886970031258,0.2966635783198496,0.4269478989325234
0.192,0.5980884252179473,0.4910397647091319,0.2568383171848461,0.49497341853499355,0.47735658845767703,0.29642105955491777,0.413362645225259
0.193,0.5996672278586584,0.5290911818471253,0.23193892764469773,0.49110650541605705,0.4755901345903529,0.296170085945746,0.3879364491722945
0.194,0.5228367098823485,0.5654667402545744,0.2520529492348203,0.4871767754977224,0.47378946249571546,0.29591066465087695,0.4287261469939668
0.195,0.46420006102055344,0.571856006070116,0.2623915379302266,0.4831847314266732,0.4719547017302938,0.2956428030698071,0.41990613288970474
0.196,0.44486900232688714,0.5140815621346272,0.2773564211066163,0.479130883820115,0.4700859843032623,0.2953665088427763,0.4148555901246313
0.197,0.4091366156417951,0.515347191720225,0.3010391373969917,0.47501575120046413,0.4681834446669423,0.2950817898505493,0.39163753965164816
0.198,0.420295549955089,0.46939184613155416,0.3328739680547794,0.4708398599290243,0.4662472197071289,0.2947886542141912,0.41197173968320844
0.199,0.4523274570305665,0.49082261833084173,0.34373966444261933,0.46660374413865907,0.4642774487332422,0.2944871102948359,0.4051951029313035
0.2,0.5005550077976306,0.47291256988699354,0.3291672558443421,0.4623079456654735,0.46227427346830396,0.2941771666934473,0.4012548109022946
0.201,0.5514699647393535,0.4177850564773083,0.2975470583941946,0.457953013979507,0.46023783803874063,0.2938588322505744,0.4143620467655692
0.202,0.5904738541791066,0.40688015408488465,0.2709862395031338,0.4535395061144517,0.45816828896401357,0.2935321160460988,0.40971706060946017
0.203,0.6021077217465772,0.4285875190892908,0.2449249782324673,0.44906798659640407,0.45606577514607755,0.29319702739897585,0.41065664624567694
0.204,0.5547890835057985,0.4781055080128734,0.22416320646829274,0.4445390273716554,0.45393044785866726,0.29285357586696886,0.42532246217427827
0.205,0.46830052543241824,0.5223033515556055,0.2235730221919561,0.43995320773353624,0.45176246073641274,0.29250177124637633,0.41966287052522
0.206,0.41489186119886245,0.5405464462149386,0.24127653168018925,0.43531111424831875,0.4495619697637863,0.29214162357175283,0.4107988311212691
0.207,0.3940928297027758,0.5958328558770295,0.2705439181236847,0.43061334068019114,0.44732913326387946,0.29177314311562247,0.40942538350485613
0.208,0.3699720497897948,0.5165156037335051,0.27431232470198424,0.4258604879153081,0.4450641118870113,0.29139634038818607,0.41158454938275735
0.209,0.3878574715734513,0.43216865376140623,0.29551409130872397,0.42105316388493436,0.4427670685991699,0.2910112261370213,0.4142223603724687
0.21,0.47180408366636206,0.3612850557053625,0.29969508757722063,0.41619198348768316,0.4404381686702879,0.2906178113467762,0.424349076999173
0.211,0.4760294337365345,0.341702967905984,0.29216248236167086,0.41127756851086616,0.4380775796623506,0.2902161072388559,0.40497848154711963
0.212,0.5498425585738251,0.39267802641676064,0.295225958024233,0.406310547550962,0.4356854714173404,0.2898061252711023,0.43513914660712183
0.213,0.4945144063323657,0.42491618800324393,0.2789975492518291,0.4012915559332121,0.43326201604501685,0.28938787713746755,0.42480375727892655
0.214,0.49985084265801905,0.4564704191150176,0.30362512123134805,0.39622123563035816,0.43080738791053325,0.2889613747676803,0.38507991929268354
0.215,0.5014826325230275,0.5561965230754801,0.28692062532764934,0.3911002351805274,0.4283217636218917,0.2885266303269057,0.41910775211907
0.216,0.4228525384257697,0.5366423172354071,0.2779860698100678,0.3859292096042792,0.4258053220172362,0.288083656215398,0.4307208513897494
0.217,0.3923633274806103,0.46920647750009287,0.26150240512760864,0.38070882032082276,0.4232582441519852,0.2876324650681471,0.4230448770866454
0.218,0.37283586867322666,0.4476994181580345,0.2490908565828498,0.3754397350634147,0.4206807132858051,0.2871730697545184,0.4135806532633767
0.219,0.3510239942988152,0.4124835928878735,0.2390267375711357,0.3701226277939518,0.41807291486942477,0.28670548337788515,0.41794392600300817
0.22,0.33947551928252684,0.38553597339764334,0.22443632801460592,0.36475817861676313,0.4154350365312924,0.28622971927525515,0.42096509321872966
0.221,0.3318720587655193,0.35613602199450883,0.23813660917338456,0.3593470736916215,0.4127672680640761,0.2857457910168903,0.4282084831969989
0.222,0.3486690320898791,0.3565709531570438,0.25514793513094125,0.3538900051459753,0.4100698014110086,0.28525371240591924,0.40214039999955503
0.223,0.46120866797816035,0.4227491074968264,0.29472407992729344,0.3483876709864202,0.4073428306520769,0.284753497477944,0.4120093756241986
0.224,0.485898229838804,0.47131959138812435,0.3185402423192943,0.34284077500941906,0.4045865519900584,0.2842451605006394,0.43908053465215285
0.225,0.4929275848127466,0.468196151909224,0.31054506703793616,0.3372500267112783,0.4018011637364041,0.28372871597334637,0.4199609085291913
0.226,0.45994449934249265,0.49369363697151875,0.29989510875856906,0.3316161411973989,0.39898686629697105,0.2832041786266579,0.4380482556249002
0.227,0.3704423125285742,0.4696859940161039,0.27297755657065076,0.32593983909080704,0.39614386215760256,0.28267156342199956,0.45568837788231065
0.228,0.33533711446675163,0.46892636077617594,0.26877425663471943,0.32022184643998036,0.39327235586956,0.2821308855512021,0.41410461842369206
0.229,0.26098626382068446,0.38647171668068214,0.24070168409374645,0.314462894625981,0.39037255403480536,0.28158216043606843,0.4057893802314942
0.23,0.23781327556915388,0.35978315536834077,0.23845778586337954,0.30866372026890376,0.3874446652911363,0.28102540372793394,0.41711804628286503
0.231,0.28520811145573083,0.3345317885372351,0.24251492708612668,0.30282506513365803,0.38448890029717525,0.28046063130721965,0.43363993128643574
0.232,0.3245165223246671,0.34834300217463776,0.22520201902040568,0.29694767603508804,0.3815054717172126,0.2798878592829796,0.43546631589250684
0.233,0.4113195523201403,0.42956346668503953,0.2649384966427223,0.29103230474244896,0.37849459420590553,0.2793071039924411,0.44801078481984885
0.234,0.4226196647774585,0.4257155273579497,0.2636553296443441,0.2850797078832503,0.37545648439283413,0.27871838200053894,0.4204528210593353
0.235,0.413090090006025,0.47461388697387624,0.2881132240003672,0.2790906468464751,0.3723913608669146,0.2781217100994429,0.42689854041349945
0.236,0.35944828751880503,0.4472945288899546,0.28422818622214296,0.2730658876851924,0.36929944416067273,0.27751710530807866,0.41264794390994786
0.237,0.33769806695463717,0.4120981531294327,0.277447762200179,0.2670062010185722,0.36618095673437623,0.27690458487164243,0.39125262029844937
0.238,0.3127887018372688,0.427061391021876,0.30465401153738975,0.26091236193331707,0.3630361229600294,0.2762841662611091,0.42100780968010787
0.239,0.29968512324336644,0.4060024138883897,0.28881501800157305,0.2547851498845208,0.35986516910522903,0.27565586717273377,0.4077857356755676
0.24,0.2591317996488773,0.34215347854587036,0.27229804175131755,0.24862534859597057,0.3566683233168855,0.27501970552754734,0.42949816005211194
0.241,0.25675516830412853,0.3385767679355579,0.27818121320074546,0.2424337459599005,0.35344581560480776,0.27437569947084495,0.39934818279945716
0.242,0.2389097891791834,0.31845831748582953,0.2580793288987552,0.23621113393621407,0.35019787782515366,0.27372386737166865,0.4131998790470429
0.243,0.26039854308713195,0.33757640391321664,0.24306040542057378,0.22995830845118628,0.3469247436637489,0.27306422782228323,0.4254309372423086
0.244,0.26326731230558703,0.33607352864452583,0.23409463273106082,0.22367606929565592,0.343626648619273,0.27239679963764635,0.4268339877602754
0.245,0.2668881860459841,0.36853132381743814,0.22593616735361405,0.21736522002272748,0.3403038299863159,0.27172160185487143,0.42194316754053957
0.246,0.33817225911908566,0.44619799228858525,0.2590193579697074,0.21102656784498783,0.3369565268383045,0.2710386537326849,0.4450673190071473
0.247,0.35903594034484787,0.45316434082159185,0.2560413857927668,0.20466092353125756,0.3335849800103019,0.27034797475087663,0.44163942074277296
0.248,0.37547251409995097,0.4334473454400901,0.24043773422903617,0.1982691013028873,0.3301894320816793,0.2696495846097448,0.41474054887334405
0.249,0.26442754574011634,0.3511080576774862,0.2757775803038931,0.19185191872961002,0.32677012735866223,0.26894350322953353,0.442411957953272
0.25,0.2060030159648441,0.2649947839338213,0.2891218823998059,0.1854101966249685,0.3233273118567542,0.2682297507498647,0.44439196386432794
0.251,0.1361920911386311,0.2227679728795158,0.2893068147338232,0.17894475894132475,0.31986123328303484,0.26750834752916375,0.4219051638353711
0.252,0.07093642252540418,0.24856161073469166,0.285758185204805,0.1724564326644698,0.31637214101833855,0.26677931414407896,0.4240832168659088
0.253,0.07825222541798972,0.30371698827966254,0.2879121673394297,0.1659460477078459,0.3128602860993115,0.2660426713888943,0.42307604896151835
0.254,0.1534199262371784,0.3755588898644123,0.282017573727895,0.1594144368063915,0.30932592120034896,0.26529844027493676,0.41609098420486873
0.255,0.2336877592496334,0.4325552624815125,0.2449756514457978,0.15286243541002933,0.30576930061541724,0.26454664202997646,0.41742917494461546
0.256,0.3261098016422935,0.45000032493641967,0.2201918036691711,0.1462908815768032,0.30219068023975626,0.26378729809762164,0.4399552090954738
0.257,0.3023509550475501,0.3927616508842639,0.18550849238095352,0.13970061586568394,0.29859031755146875,0.2630204301367067,0.42951794387855247
0.258,0.2897468006153139,0.3449117147081453,0.20067054821282565,0.13309248122905526,0.2949684715929949,0.26224606002067474,0.41776518825399594
0.259,0.2100858090324675,0.28597751768850443,0.2114313961832101,0.12646732290489107,0.29132540295247356,0.2614642098369535,0.4134494832494015
0.26,0.12257121784702073,0.2563065011432429,0.2230721915341568,0.11982598830864423,0.28766137374499484,0.26067490188632525,0.41561002519118806
0.261,0.10280658227006545,0.2732114217996792,0.27039056727860006,0.11316932692485288,0.2839766475937402,0.25987815868229086,0.4228869416420174
0.262,0.1094773819417257,0.3138526557344714,0.2986996114262821,0.1064981901984848,0.280271489611015,0.25907400295042754,0.4359570376780973
0.263,0.10985704208658016,0.285773801686048,0.2893899637944454,0.09981343142603095,0.27654616637917445,0.2582624576277408,0.41482376003050364
0.264,0.12036821762405918,0.3401550001173337,0.28878460023616986,0.09311590564635953,0.2728009459314423,0.25744354586200996,0.43611084014076135
0.265,0.1321749517849069,0.3153548978934,0.2707145256849737,0.0864064695313513,0.26903609773262743,0.25661729101112823,0.4277995057060526
0.266,0.12454066131984512,0.35783015770377435,0.24703772521458087,0.0796859812763215,0.2652518926597353,0.25578371664243615,0.4272956835004155
0.267,0.13534686852441113,0.3292513268256288,0.21642189494621658,0.07295530049025142,0.26144860298247863,0.25494284653204957,0.43803662940963106
0.268,0.12528351870676663,0.3044302320119244,0.2209242218225413,0.0662152880858351,0.25762650234368856,0.2540947046641814,0.43599281558430636
0.269,0.19795468020087098,0.37316523537307544,0.24050727138128233,0.05946680616936179,0.25378586573962497,0.2532393152304575,0.4091636714079415
0.27,0.21588563939557107,0.30478347086353413,0.2328695525299156,0.05271071793044589,0.2499269695001923,0.2523767026292269,0.4131550372488484
0.271,0.16765589999015185,0.21744091536698745,0.22392213924579293,0.04594788753161567,0.246050091269057,0.2515068914648655,0.4235542575415626
0.272,0.10525403165413046,0.1759466489856548,0.2181975308236044,0.03917917999778138,0.24215550998367152,0.25062990654707434,0.4307253234939519
0.273,0.025557316055273904,0.19857779810938742,0.2300597584790339,0.032405461105589284,0.23824350585520526,0.24974577289017236,0.44297369105441914
0.274,-0.038435042636562076,0.23775918712767435,0.24150733643263275,0.025627597272681994,0.23431436034838346,0.24885451571238235,0.4275246664759941
0.275,-0.05359056635561893,0.3155741678638731,0.24928659426271038,0.018846455446876947,0.23036835616123574,0.2479561604351121,0.4473332240415215
0.276,-0.05278149124901452,0.32507685964779975,0.2636943226740766,0.012062902995274348,0.22640577720475707,0.24705073268222918,0.4185537138162046
0.277,0.05216556106104484,0.34091015080990184,0.2909793611611629,0.005277807593315524,0.22242690858248018,0.24613825827932978,0.42072776680992524
0.278,0.14051843045607385,0.33919166578973675,0.2923123219009745,-0.0015079628862022286,0.21843203656996266,0.24521876325300246,0.4236553503554599
0.279,0.16210345693034742,0.25408201619488663,0.28591072292531866,-0.008293540484133305,0.21442144859419,0.24429227383008556,0.41766157883841987
0.28,0.1547106430531177,0.19160461519557556,0.24878921368784496,-0.015078057266002542,0.21039543321289458,0.24335881643691928,0.44152587057105364
0.281,0.10581326807283042,0.19046965015107206,0.2521260144893055,-0.02186064543302344,0.20635428009379575,0.24241841769859196,0.3945196923123903
0.282,0.029011463720782952,0.16866149444741793,0.20068539208014552,-0.028640437433094836,0.20229827999375757,0.24147110443818043,0.4218594212816567
0.283,-0.0974385605065946,0.19311875844716325,0.16500087769048172,-0.03541656607177123,0.19822772473786876,0.24051690367598497,0.4418252596851391
0.284,-0.10397225263931355,0.20729017606032807,0.1726769134647242,-0.04218816462318192,0.19414290719844748,0.23955584262875879,0.42444341299100197
0.285,-0.047569512825099206,0.27558838759920334,0.21524137343522073,-0.04895436694089434,0.190044121273968,0.23858794870893163,0.44121027334311047
0.286,-0.007131520836811162,0.29730539105419307,0.23345534131105708,-0.055714307568700404,0.18593166186791615,0.23761324952382779,0.45485218478720496
0.287,-0.017949472121825842,0.29549309841014526,0.2482040623077885,-0.06246712185131779,0.1818058248675709,0.23663177287487872,0.4295888684898782
0.288,0.017095946628435214,0.2624313207790099,0.27532440181700035,-0.0692119460449847,0.17766690712271535,0.23564354675683025,0.442795679879871
0.289,0.043665577697502816,0.18892075198098762,0.2716637573986169,-0.07594791742794214,0.17351520642427923,0.23464859935694393,0.45794227302901586
0.29,0.007296278444231381,0.16638677163756385,0.26903748468841143,-0.08267417441078267,0.1693510214829121,0.23364695905419278,0.4338818034083846
0.291,-0.001279188169897293,0.10088241875751457,0.2485236296956325,-0.08938985664665447,0.1651746519074927,0.23263865441845222,0.4286239868527745
0.292,-0.012149855162742584,0.09936609634124036,0.23833055771695633,-0.09609410514130898,0.16098639818357177,0.231623714209685,0.4401742970106673
0.293,0.004188111688849385,0.16299815704466575,0.22397394745912771,-0.1027860623629717,0.1567865616517524,0.23060216737712103,0.44369922018087926
0.294,-0.03339090020332529,0.1781859841622069,0.20710994249418377,-0.10946487235202983,0.15257544448600902,0.2295740430584315,0.42916667930967745
0.295,-0.08926039893822577,0.21152089535535465,0.1971256228955652,-0.116129680830516,0.14835334967194577,0.2285393705788977,0.42397012030431175
0.296,-0.15769496038983283,0.29785703424334187,0.17980927275358777,-0.12277963531137734,0.144120580984998,0.2274981794505748,0.4505287069908687
0.297,-0.21011348996034843,0.26267659560504103,0.18672162739784007,-0.12941388520751765,0.1398774429685752,0.2264504993714499,0.4268162461546087
0.298,-0.1667112216160819,0.2026183857424113,0.21051028137518976,-0.13603158194059278,0.13562424091214953,0.225396360224595,0.4445319587990451
0.299,-0.13229715318745372,0.1255190064663783,0.19219943220585112,-0.14263187904955343,0.13136128082929083,0.22433579207731477,0.43350515208606677
0.3,-0.0053248895459610725,0.09159251182426764,0.23277136735198303,-0.14921393229891275,0.12708886943564843,0.22326882518028887,0.4524177952207042
0.301,0.0318897742114746,0.13410187510418994,0.22430894887483815,-0.15577689978673312,0.12280731412688453,0.22219548996670893,0.420449067963341
0.302,0.01936236436257989,0.09600366098828132,0.2308678191744014,-0.16231994205231215,0.11851692295655647,0.22111581705141073,0.420569197020929
0.303,-0.03410904784212354,0.12872136001688872,0.24784536810131846,-0.16884222218355602,0.1142180046139529,0.22002983723000064,0.4411780784996154
0.304,-0.1098869078230462,0.11824094778148102,0.2449587341009411,-0.1753429059240299,0.10991086840188405,0.2189375814779779,0.4175033867718309
0.305,-0.21931168436556728,0.13606433998357687,0.23940573814462168,-0.1818211617796643,0.10559582421442688,0.2178390809498503,0.43261015363308775
0.306,-0.2827262840282685,0.13812141106505033,0.20451968999205009,-0.1882761611251123,0.10127318251462977,0.21673436697824625,0.4499346132891548
0.307,-0.24949134277651835,0.1633631730267823,0.2223467202480039,-0.19470707830973727,0.09694325431217424,0.21562347107302052,0.41007874393348104
0.308,-0.2140523421476156,0.23443237971778996,0.19891757286479356,-0.20111309076321984,0.09260635114099824,0.21450642492035568,0.43646536466634994
0.309,-0.14821740966871086,0.17888806987060774,0.17557696874253345,-0.2074933791007738,0.08826278503688187,0.21338326038185856,0.4463235382513427
0.31,-0.15407731475184056,0.15044839276602587,0.17495419819390712,-0.21384712722795035,0.08391286851499578,0.2122540094936511,0.4316145383080183
0.311,-0.1360941519410832,0.08125651947020775,0.1590208793489476,-0.2201735224450254,0.07955691454741746,0.21111870446545705,0.4209430894050822
0.312,-0.1501857934851983,0.035529640247321595,0.17313010939120094,-0.2264717555509504,0.07519523654061226,0.20997737767968247,0.42905961664359393
0.313,-0.13584641834430317,-0.011652420474162234,0.17708835633446518,-0.23274102094685536,0.07082814831288431,0.20883006169049276,0.4222913208835929
0.314,-0.17934676259971785,0.026772748529777405,0.22194891013491072,-0.2389805167390937,0.06645596407179788,0.20767678922288385,0.43332603873025544
0.315,-0.19346726316876245,0.09633408359592224,0.23557579831225955,-0.24518944484180935,0.06207899839156952,0.2065175931717491,0.42931819106176855
0.316,-0.18627405611515824,0.19381100055760567,0.2674388485630639,-0.2513670110790208,0.05769756619043623,0.20535250660094032,0.42662198523851236
0.317,-0.23759540978035756,0.2220767187041578,0.2476478973874253,-0.2575124252862022,0.05331198270799633,0.20418156274232555,0.4385172698548506
0.318,-0.2964027166449519,0.1683340398760449,0.21575143487046303,-0.2636249014113518,0.04892256348252869,0.2030047949948405,0.45201521399221384
0.319,-0.3209626767396421,0.10467375308148398,0.1877059734280997,-0.26970365761553616,0.044529624328290204,0.2018222369235363,0.43714193820763836
0.32,-0.29187287297839526,0.016015028906705954,0.16010740379425956,-0.2757479163728927,0.040133481312792346,0.20063392225862184,0.44947427128400286
0.321,-0.243302109489737,-0.04920938504280956,0.15079527102694912,-0.2817569045700832,0.035734450734061896,0.19943988489450212,0.45243831555080566
0.322,-0.24156768743888415,-0.04230511707216485,0.14846008613576286,-0.2877298536051815,0.03133284909788261,0.1982401588888111,0.4265948009691727
0.323,-0.15938842190101016,0.03319854098183815,0.17743118791074938,-0.2936659994859834,0.02692899309502323,0.19703477846144032,0.43707478986446036
0.324,-0.12610266734818426,0.07011049368564787,0.1903797538623168,-0.2995645829277295,0.02252319957845189,0.19582377799356274,0.42881905462565456
0.325,-0.13906617168934965,0.05920655552222095,0.18023955926240284,-0.3054248494502228,0.018115785540539105,0.1946071920266525,0.4162743340388034
0.326,-0.23991290890754444,0.11448474133597578,0.20962173769465173,-0.31124604947433443,0.013707068090249548,0.19338505526149918,0.438471239492974
0.327,-0.3068949970980516,0.09334937225197845,0.19265078187500442,-0.3170274384178811,0.0092973644303278,0.19215740255721855,0.4217180576645334
0.328,-0.3988327990085802,0.06391124300583202,0.19526687480154672,-0.3227682767908627,0.0048869918344749816,0.19092426893025788,0.44029717139782465
0.329,-0.37811276142290495,0.0860716202447396,0.204369752301187,-0.3284678302900513,0.00047626762452147457,0.18968568955339724,0.4159566090186796
0.33,-0.4176692943337541,0.019363161849630908,0.20359185601825214,-0.33412536989291275,-0.003934490852403827,0.18844169975474628,0.43682061077154866
0.331,-0.347088806570811,0.04942839095982791,0.23679787992167828,-0.33974017195085743,-0.00834496624670725,0.18719233501673657,0.4160613822432234
0.332,-0.23335448704842454,-0.018460637979888683,0.21158225318977847,-0.3453115182817987,-0.012754841229161935,0.18593763097510982,0.44313797368244906
0.333,-0.2557414569158437,-0.05212693751058086,0.18124424062525848,-0.3508386962620167,-0.017163798513740277,0.18467762341790075,0.4304723883888112
0.334,-0.25381860360192654,-0.07669697914130563,0.17682392041498396,-0.3563209989173084,-0.0215715208804421,0.18341234828441724,0.42945671928141155
0.335,-0.28109554290284156,0.0005614698426883967,0.14096705293058984,-0.3617577250134148,-0.02597769119811809,0.18214184166421424,0.4489935165204395
0.336,-0.2911969643087902,0.04944299021581071,0.1273505073047307,-0.3671481791457169,-0.03038199244728797,0.1808661397960651,0.43175777237409824
0.337,-0.33372741580394905,0.10086327132780336,0.12200006796655677,-0.3724916718281819,-0.03478410774294835,0.17958527906692756,0.43708793597788115
0.338,-0.37635320313867976,0.0790023065599297,0.1471357528438709,-0.377787519581556,-0.039183720357373227,0.17829929601090616,0.43351533482271526
0.339,-0.35195602687135613,0.048117596017157524,0.1816694662026869,-0.3830350450207869,-0.043580513742901936,0.17700822730821006,0.44212839700462436
0.34,-0.4070491509231164,-0.02465989791335327,0.21939968640114474,-0.3882335769416666,-0.047974171554714264,0.1757121097841066,0.4486959197385143
0.341,-0.4118195602932479,-0.09807482752019742,0.2142051041616285,-0.39338245040668546,-0.05236437767359204,0.17441098040787112,0.44634903280551147
0.342,-0.4391493936102589,-0.08837545635172533,0.224436759588945,-0.3984810068300822,-0.05675081622866218,0.1731048762917325,0.4308621450121212
0.343,-0.3804495444713876,-0.08851155892017794,0.2123198558267565,-0.4035285940620838,-0.06113317162012424,0.17179383468981468,0.45111142578658364
0.344,-0.3612739980076237,-0.06910855247148769,0.20203055302684203,-0.40852456647232066,-0.06551112854195702,0.17047789299707383,0.4257472738349124
0.345,-0.35096592704722673,-0.06404994158200614,0.1696032963492819,-0.41346828503240896,-0.06988437200460518,0.16915708874823185,0.4279742688934483
0.346,-0.28905628695717106,0.00700971059154213,0.15018735330053634,-0.4183591173976862,-0.07425258735764202,0.1678314596167057,0.435490938238549
0.347,-0.3024803170403148,0.023523851285099786,0.1338344274243058,-0.4231964379880962,-0.07861546031240775,0.1665010434135331,0.44972658118191994
0.348,-0.3228743788430788,0.024327420590971365,0.13016634299521976,-0.42797962806820344,-0.08297267696462293,0.1651658780862937,0.4232635208021897
0.349,-0.4553140072310868,-0.011291941349673394,0.1302099126402756,-0.43270807582633736,-0.08732392381697333,0.1638260017180268,0.4481434429584592
0.35,-0.5109854013277819,-0.040018273551375584,0.13373609707408324,-0.4373811764528468,-0.09166888780166559,0.16248145252614513,0.43692889671768953
0.351,-0.5469790613231817,-0.0716193909119717,0.14180202098356454,-0.44199833221746015,-0.0960072563029529,0.1611322688613449,0.43252122135289056
0.352,-0.5034880410813639,-0.13909517972522298,0.18301939166321526,-0.44655895254574185,-0.10033871717962618,0.15977848920651191,0.45103979488654683
0.353,-0.5070554727071973,-0.16916504678417324,0.1517859465304054,-0.45106245409463025,-0.10466295878747311,0.15842015217562352,0.42837409639495005
0.354,-0.3612391280006962,-0.09326379855198233,0.2049857337169568,-0.45550826082705376,-0.10897967000170045,0.15705729651264763,0.46557422094782014
0.355,-0.3411170733986968,-0.08355881701595158,0.18755246510429915,-0.45989580408560976,-0.11328854023931889,0.1556899610904374,0.43616629923914485
0.356,-0.34066077306431963,-0.024603469357680118,0.17845756697331736,-0.4642245226653016,-0.11758925948149014,0.15431818490962287,0.44022392750694367
0.357,-0.3831346467364263,0.00013052646252887865,0.15632134407777776,-0.46849386288532147,-0.12188151829583102,0.15294200709749786,0.4570804462798311
0.358,-0.38122455959204765,-0.001092161921985772,0.1539846879863576,-0.4727032786598712,-0.12616500785867785,0.15156146690690464,0.440816433857315
0.359,-0.46462585060015443,-0.07026378358477081,0.1430585046681697,-0.47685223156801015,-0.1304394199773056,0.15017660371511374,0.4531113284001562
0.36,-0.4229382004306599,-0.07728553635231152,0.1504550796983657,-0.4809401909225258,-0.13470444711210197,0.14878745702270113,0.41554655683227487
0.361,-0.5319256271059163,-0.1750080940536215,0.12034644540105707,-0.48496663383781213,-0.1389597823986954,0.1473940664524213,0.43381278290122793
0.362,-0.5214672470569357,-0.1718204766506387,0.14171971482201617,-0.48893104529675147,-0.14320511967003222,0.14599647174807753,0.4440241739450515
0.363,-0.5216015429584315,-0.15918328983626331,0.12611312177541592,-0.49283291821659,-0.14744015347840617,0.14459471277338795,0.45237975359622684
0.364,-0.5156827456640213,-0.1362018700011328,0.1268482938566711,-0.49667175351379667,-0.1516645791174345,0.14318882951084833,0.4487783662654861
0.365,-0.4935660214709935,-0.08790153148663069,0.13428201005389753,-0.5004470601679026,-0.15587809264398142,0.14177886206059198,0.4477936104448204
0.366,-0.4151234998831149,-0.08693737222642901,0.15385704101174877,-0.5041583552843051,-0.16008039090002713,0.14036485063924575,0.4525530688036683
0.367,-0.421967307970738,-0.08554895869205734,0.16826750919468308,-0.5078051641560348,-0.16427117153447854,0.13894683557878337,0.4456596919655099
0.368,-0.42694315649430964,-0.1486664049830738,0.17325905456418614,-0.5113870203244751,-0.1684501330249239,0.13752485732537428,0.4143802610366836
0.369,-0.4638301561786557,-0.1349320774538496,0.18606860756623242,-0.5149034656390246,-0.17261697469932694,0.13609895643823086,0.45754385334719244
0.37,-0.4115554148451257,-0.08678398611644005,0.20112365755917025,-0.518354050315701,-0.1767713967576596,0.13466917358845082,0.43032431093370127
0.371,-0.5279618178102025,-0.14375394463221056,0.14847031806560207,-0.521738332994671,-0.18091310029347318,0.13323554955785752,0.44427859918317103
0.372,-0.5804622665721929,-0.19155503967116635,0.12478421331859126,-0.5250558807967041,-0.18504178731540322,0.13179812523783652,0.44282589588985327
0.373,-0.6433354587610857,-0.2280561971026119,0.09629252325663065,-0.5283062693785417,-0.18915716076861036,0.13035694162816963,0.4413604412553283
0.374,-0.6255560521433835,-0.2454335573090929,0.08928886270079572,-0.5314890829871745,-0.19325892455615304,0.12891203983586527,0.42765862401527727
0.375,-0.6240531212626491,-0.28159155444137834,0.07780888027934207,-0.5346039145130207,-0.19734678356029123,0.1274634610739856,0.41780532671525816
0.376,-0.5653841707418756,-0.2085770711432304,0.0810956288187435,-0.5376503655419993,-0.20142044366371992,0.12601124666047142,0.4291795638287126
0.377,-0.45290669908284154,-0.10392608329238086,0.1397806760019234,-0.5406280464064902,-0.20547961177073099,0.12455543801696364,0.4512613678758944
0.378,-0.44791873389856834,-0.07073620153482714,0.14338696744786325,-0.5435365762351766,-0.20952399582830034,0.12309607666762139,0.42412537121510857
0.379,-0.44826527959871565,-0.0519307456901657,0.14582423284059956,-0.5463755830017606,-0.21355330484710128,0.12163320423793866,0.43105971979988467
0.38,-0.4819532226070006,-0.13811392031821398,0.16496662958575292,-0.5491447035725505,-0.2175672489224409,0.12016686245355565,0.44677784001826537
0.381,-0.4883457642951087,-0.21591540545895632,0.15401515480813852,-0.5518435837529072,-0.22156553925511813,0.11869709313906941,0.4295703035869769
0.382,-0.5560902339141082,-0.2924704933646309,0.1390815376174382,-0.5544718783325493,-0.2255478881722035,0.11722393821684085,0.43552087162264647
0.383,-0.6228271217413061,-0.32080074107688644,0.11501310273881421,-0.5570292511297089,-0.2295140091477355,0.11574743970579876,0.44315728892971595
0.384,-0.6457530306398774,-0.29126488996681865,0.10668070623272682,-0.5595153750341311,-0.2334636168233368,0.11426763972024125,0.445705054988283
0.385,-0.6269070278857398,-0.21901036341296828,0.13208884181801087,-0.5619299320489154,-0.23739642702874517,0.11278458046863536,0.4298844725886133
0.386,-0.5751554418841478,-0.12589020344005344,0.11086966760746415,-0.5642726133311897,-0.2413121568022592,0.11129830425241179,0.444280271201589
0.387,-0.557442318767101,-0.10256566462383206,0.09641302322792618,-0.5665431192316144,-0.24521052441109767,0.10980885346475917,0.44751291578234326
0.388,-0.5797257820216426,-0.15997946360255672,0.08705460513488698,-0.5687411593327093,-0.24909124937166907,0.1083162705894148,0.42758588523617974
0.389,-0.4846200075159573,-0.18215118265940716,0.07691082639918405,-0.5708664524860013,-0.25295405246975255,0.10682059819945251,0.4455799701667986
0.39,-0.46384478386619393,-0.20805157394515023,0.07598836041866708,-0.5729187268479857,-0.2567986557805872,0.10532187895606936,0.43454034870153285
0.391,-0.48818966982479667,-0.2930529289797364,0.08140007234384097,-0.5748977199148971,-0.260624782688868,0.10382015560736733,0.4447637526276545
0.392,-0.5714879865682312,-0.2939101351145657,0.12707632476015443,-0.5768031785562859,-0.264432157908649,0.10231547098713506,0.4520910714149491
0.393,-0.5684428425683992,-0.2686507063678675,0.15096198487910584,-0.5786348590473961,-0.26822050750314863,0.10080786801362576,0.4414362978913025
0.394,-0.6628473229608498,-0.25175367663466264,0.16134770402779192,-0.5803925271003395,-0.27198955890445997,0.0992973896883331,0.45464960365266793
0.395,-0.6840922808708603,-0.24743690973371943,0.1470289127965009,-0.5820759578940634,-0.2757390409331613,0.09778407909476441,0.45331552867837005
0.396,-0.6630511056739814,-0.23182103162866963,0.1311443652717788,-0.5836849361031076,-0.2794686838178274,0.09626797939721285,0.45485679382356026
0.397,-0.6355118849076941,-0.19606886116901792,0.11498013852995045,-0.5852192559251452,-0.28317821921443986,0.09474913383952462,0.4489371533000929
0.398,-0.5462781069972549,-0.18929473660624688,0.0707650179779957,-0.5866787211073078,-0.286867380225693,0.09322758574386662,0.4574459674991666
0.399,-0.5370292288860189,-0.19123311760982656,0.04806859341980457,-0.5880631449712872,-0.2905359014201978,0.09170337850949052,0.44899476862101617
0.4,-0.5380659188642801,-0.1797751029839136,0.061697555822737664,-0.5893723504372133,-0.29418351885157884,0.09017655561149476,0.4245032900422323
0.401,-0.46983777683306016,-0.2251333788131071,0.05597280506121456,-0.5906061700463041,-0.2978099700774653,0.0886471605995844,0.43514228523410936
0.402,-0.5284059976496217,-0.3165518680354282,0.05610695561602442,-0.591764445982286,-0.30141499417837375,0.08711523709682985,0.44224869613234186
0.403,-0.5783036488731516,-0.36066593304309064,0.09789931663830267,-0.5928470300915784,-0.3049983317764802,0.08558082879842116,0.44387368121705556
0.404,-0.6533671923643714,-0.36394434579965684,0.09157676643313356,-0.5938537839022445,-0.3085597250542827,0.08404397947042265,0.449349728782825
0.405,-0.6358323474099407,-0.33326605554319577,0.10032476979579347,-0.594784578641704,-0.31209891777315074,0.08250473294852438,0.43550987593870394
0.406,-0.677557420193997,-0.2206606249240234,0.12834904687459422,-0.5956392952532024,-0.31561565529176144,0.08096313313679152,0.4694341664929305
0.407,-0.6844499767414103,-0.23439687334078674,0.11429378525142464,-0.5964178244110411,-0.319109684584421,0.07941922400641332,0.4442364546737534
0.408,-0.6558581005079736,-0.2040348874414601,0.12219595630972353,-0.5971200665345601,-0.32258075425926963,0.07787304959444619,0.4455099218579164
0.409,-0.6102196421505564,-0.2223927226251437,0.11576372008583057,-0.5977459318008752,-0.32602861457636817,0.07632465400256112,0.43768933574463664
0.41,-0.6169344858788155,-0.2539211315579822,0.10276902936939258,-0.5982953401563683,-0.3294530174656676,0.07477408139578302,0.4338338820468505
0.411,-0.5299804950762069,-0.3157079570687502,0.06892858286515223,-0.5987682213269253,-0.3328537165448564,0.07322137600123226,0.4444947717027074
0.412,-0.5199680808757999,-0.3553241919660717,0.06089481180536077,-0.5991645148269259,-0.33623046713708915,0.07166658210686282,0.4464769533847754
0.413,-0.5178518310687785,-0.352186345611749,0.03868672920957309,-0.5994841699669798,-0.33958302628858894,0.07010974406019924,0.4452393587686927
0.414,-0.6334412190983926,-0.38016036973677564,0.04433052020561973,-0.5997271458604106,-0.3429111527861287,0.06855090626707129,0.466279870685152
0.415,-0.6484086977892223,-0.3761152143127624,0.05456781408187267,-0.5998934114284854,-0.346214607174386,0.06699011319034849,0.44503800672696864
0.416,-0.668363485638139,-0.3137815229563409,0.08067280703777072,-0.5999829454043898,-0.3494931517731716,0.06542740934867029,0.4456582152806295
0.417,-0.699928106074777,-0.2751214242287921,0.07577716220903587,-0.5999957363359484,-0.3527465506945304,0.06386283931517732,0.45660848792445674
0.418,-0.7016451777179026,-0.25858870979136345,0.07037680064969697,-0.5999317825870898,-0.35597456985971326,0.06229644771623978,0.44490765574581204
0.419,-0.6487102567280588,-0.24735894480690235,0.0933679927704692,-0.5997910923380555,-0.3591769770160187,0.06072827923018425,0.45356794585232846
0.42,-0.6481829154914043,-0.27608245955687594,0.09258892432936472,-0.5995736835843536,-0.3623535417535031,0.059158378586020445,0.4318826992494016
0.421,-0.5630554492503665,-0.2995844657507041,0.0973596401076429,-0.5992795841344571,-0.3655040355215587,0.05758679056216377,0.43211278860871205
0.422,-0.5353119435076785,-0.4422073268797519,0.08412957377696655,-0.5989088316062476,-0.36862823164535796,0.05601355998515918,0.44896643998126196
0.423,-0.5345146256318797,-0.450229968199766,0.09233074022675906,-0.5984614734222024,-0.3717259053421616,0.054438731728402315,0.4448574680434648
0.424,-0.5193300455021441,-0.4055761318640958,0.08791091893116622,-0.5979375668033292,-0.3747968337374923,0.052862350710859575,0.438063650993917
0.425,-0.5964625526113859,-0.37541147840387934,0.03821958381263689,-0.597337178761848,-0.3778407958811698,0.051284461895786636,0.4493691658463489
0.426,-0.6518038102927809,-0.3074692191277422,0.023355814966644045,-0.5966603860926183,-0.38085757276320836,0.049705110289447005,0.45055107011980927
0.427,-0.6638173694501378,-0.3085786364849047,0.002985184979161518,-0.5959072753633171,-0.3838469473295747,0.048124340939826725,0.4396579576248938
0.428,-0.6692836827477584,-0.291221868868435,0.009442115731641455,-0.5950779429033661,-0.3868087044978036,0.046542198935350526,0.44208594855226396
0.429,-0.6637540209961689,-0.32239482775695877,0.027517175624156252,-0.5941724947916099,-0.38974263117247393,0.04495872940359548,0.4510456023888936
0.43,-0.7191547005690753,-0.3688763369833453,0.03838760908268149,-0.5931910468427484,-0.39264851626054026,0.04337397751000359,0.4363278947099291
0.431,-0.6179181994870824,-0.3557814196033107,0.0915671932107557,-0.592133724592522,-0.39552615068652086,0.04178798845659456,0.4414670009498353
0.432,-0.5476067976952006,-0.42733190853792985,0.10210136460437678,-0.5910006632816557,-0.39837532740754045,0.040200807480674915,0.45525710310589995
0.433,-0.5356238314993843,-0.3997427454866999,0.09594175261031757,-0.5897920078385595,-0.4011958414282271,0.038612479853548785,0.448698261869584
0.434,-0.5043093388458136,-0.4323376112878826,0.0817079275370816,-0.5885079128607914,-0.4039874898154602,0.037023050879226305,0.4433921995861413
0.435,-0.539733047773228,-0.4467175687739444,0.06701455623758666,-0.5871485425952834,-0.40675007171297317,0.03543256589313145,0.4384160679673998
0.436,-0.5244981835737091,-0.4434165691721896,0.049286657429144655,-0.5857140709173316,-0.4094833883558028,0.03384107026080863,0.43722855617661244
0.437,-0.6180937871286533,-0.41594256560350235,0.00838710455379214,-0.5842046813083578,-0.41218724308459204,0.03224860937662982,0.4479401456677694
0.438,-0.7206801670402552,-0.3601822962476634,-0.004107087421129778,-0.5826205668324389,-0.41486144135973874,0.030655228662498164,0.4739650071403787
0.439,-0.705977959206456,-0.2868314108537286,0.023127110408408903,-0.5809619301116136,-0.4175057907753916,0.02906097356655345,0.4565786682789497
0.44,-0.6815258785893821,-0.2751640632868657,0.013829099787631648,-0.5792289832999642,-0.4201201010732955,0.02746588956187555,0.4339287555800591
0.441,-0.6528927964020869,-0.39043454060765476,0.03457786060769716,-0.577421948056482,-0.42270418415647826,0.025870022145187098,0.4585435445684324
0.442,-0.6084371363263008,-0.4189109275167904,0.014956178627460083,-0.5755410555167125,-0.42525785410278605,0.024273416835556855,0.4410840613937522
0.443,-0.518402268609479,-0.501567015595818,0.021390935694349435,-0.5735865462631938,-0.4277809271782592,0.022676119173099783,0.45026608828611714
0.444,-0.5016643026231147,-0.5374411156421619,0.01868421775448388,-0.5715586702946825,-0.4302732218503511,0.021078174717679136,0.4433916515804658
0.445,-0.5470883306484243,-0.4718349046864311,0.04834409300400056,-0.5694576869941766,-0.43273455880099104,0.019479629047606712,0.4748645644536829
0.446,-0.526617032638708,-0.43411806435170786,0.062248805865203656,-0.5672838650957397,-0.435164760939484,0.0178805277583428,0.43711566538368046
0.447,-0.5721195643786023,-0.3097329886729311,0.06755581401668825,-0.5650374826501252,-0.43756365341525366,0.016280916461195404,0.4546216867072231
0.448,-0.6116401639949934,-0.3183402221590925,0.06873552546117916,-0.5627188269892133,-0.43993106363042245,0.014680840782020324,0.4427677589003696
0.449,-0.6718468224376563,-0.3505800295233086,0.031633012490475766,-0.5603281946892577,-0.4422668212522283,0.013080346359918176,0.4599908119543573
0.45,-0.6600747637032615,-0.40089565052380033,0.017768094451847377,-0.5578658915329507,-0.44457075822528247,0.011479478845933679,0.45477947674997293
0.451,-0.6323216504157432,-0.47680485572037856,-0.0024391977112290988,-0.5553322324703124,-0.44684270878365845,0.009878283901753281,0.46644574395165167
0.452,-0.6002119057122217,-0.5313995050974449,-0.0170940305422011,-0.5527275415784036,-0.4490825094628205,0.008276807198402762,0.46014153232787985
0.453,-0.6493506773507081,-0.5067504099979832,-0.033562636749268675,-0.5500521520198756,-0.4512899991113841,0.0066750944149442685,0.44333464418967067
0.454,-0.4896015666053253,-0.38418424927069794,0.02250719144691704,-0.5473064060003544,-0.4534650189027099,0.0050731912371744835,0.48678433852508735
0.455,-0.4860307652965999,-0.43071171060361685,0.008170264066268817,-0.5444906547246701,-0.4556074123463326,0.003471143356319925,0.45858780325589527
0.456,-0.49505244805610527,-0.467181169957641,2.5362452375329164e-05,-0.5416052583519354,-0.45771702529921876,0.001868996467734753,0.4454474533269139
0.457,-0.5093085358212488,-0.42468141089331335,0.03324913546665537,-0.5386505859494771,-0.45979370597685854,0.0002667962695971381,0.4546545134157191
0.458,-0.5468996026865885,-0.4101752191127182,0.04132448232496985,-0.5356270154456294,-0.46183730496418574,-0.001335411538394465,0.45989058906403957
0.459,-0.5826278910346544,-0.3938340880728559,0.055671899168441626,-0.5325349335813939,-0.46384767522632775,-0.002937581256323745,0.4595666009084525
0.46,-0.6532109357368601,-0.4175437995496732,0.04845020109355648,-0.5293747358609718,-0.4658246721191859,-0.0045396671853616365,0.45853781065291616
0.461,-0.6802024417287792,-0.4483872864356041,0.029518590405265107,-0.5261468265011762,-0.46776815339984046,-0.006141623629068726,0.46431559027544844
0.462,-0.6214556147063638,-0.4417076811395482,0.005961610238998874,-0.5228516183797276,-0.4696779792367867,-0.007743404894698918,0.4632681120418641
0.463,-0.6237896332202301,-0.49852069088744577,-0.0023931405165717548,-0.519489532982445,-0.47155401221999504,-0.009344965294502744,0.4428114459062173
0.464,-0.4810887131013451,-0.5263306595549779,-0.04489476957917112,-0.5160610003493332,-0.47339611737079657,-0.01094625914703077,0.47841099352458993
0.465,-0.4533684526091662,-0.5083086804926089,-0.03322622384150212,-0.512566459019577,-0.47520416215159644,-0.012547240778435517,0.47687302678849297
0.466,-0.4278465843700685,-0.47752713889542425,-0.03176977552879909,-0.509006355975449,-0.47697801647540805,-0.014147864523775823,0.46298990467303397
0.467,-0.4377354755474451,-0.44895456988107,-0.029238089873316286,-0.5053811465851356,-0.47871755271521393,-0.015748084728318262,0.45397456366889216
0.468,-0.496267280088512,-0.39698281973878785,-0.018442974971970085,-0.5016912945444919,-0.480422645713148,-0.017347855748839652,0.45431263487984375
0.469,-0.5110505258968895,-0.36813223196567235,0.014657251067307583,-0.4979372718177313,-0.4820931727894999,-0.018947131954928916,0.4498885568047594
0.47,-0.5409677299945498,-0.38328221746709507,0.018208243794300336,-0.4941195585770566,-0.4837290137515428,-0.02054586773028862,0.45157276804882657
0.471,-0.5413363413668257,-0.4249258738230674,-0.0020870998677400133,-0.4902386431412422,-0.48533005090218045,-0.02214401747403635,0.42779553885189747
0.472,-0.6000120540127627,-0.5445829608680481,0.017455312120923116,-0.48629502191317364,-0.48689616904841515,-0.023741535602004312,0.4725316101493808
0.473,-0.5618261720187553,-0.5552011549154268,-0.009487635191614087,-0.4822891993163531,-0.4884272555096365,-0.025338376548041167,0.4684293130244112
0.474,-0.5722293963918925,-0.5307970621652159,0.013673689462550086,-0.4782216877303807,-0.4899232001257283,-0.026934494765310603,0.43431097207809255
0.475,-0.5070769571826135,-0.5130188057185062,-0.025697799060484385,-0.4740930074254144,-0.49138389526499393,-0.028529844727590795,0.4652423364054396
0.476,-0.4884163994892569,-0.47520022877423035,-0.01507963014417452,-0.4699036864956244,-0.4928092358319014,-0.0301243809305729,0.45460109747483224
0.477,-0.4242305222007131,-0.4518619964338171,-0.021976786549920288,-0.46565426079164524,-0.49419911927464416,-0.03171805789315927,0.45243623386814014
0.478,-0.410916488244242,-0.4077181099062753,-0.046618762540980026,-0.4613452738520349,-0.4955534455925194,-0.03331083015875967,0.4608699237667761
0.479,-0.41867167966139945,-0.4226609769179318,-0.06039001595615016,-0.45697727683375333,-0.4968721173431239,-0.034902652296589405,0.4341733407951131
0.48,-0.4517268199950271,-0.41239556056325816,-0.059052262810582734,-0.45255082844166244,-0.49815503964936375,-0.036493478902964074,0.45508268148867864
0.481,-0.4965755524755464,-0.4558761713684534,-0.053163266541131605,-0.44806649485706435,-0.49940212020628183,-0.03808326460259494,0.45630225353450204
0.482,-0.5460268363379807,-0.5025243769535552,-0.03761535069763582,-0.4435248496652814,-0.5006132692876982,-0.03967196404988337,0.4564445977815584
0.483,-0.5842503335938571,-0.5651673189892099,-0.0455523964516565,-0.43892647378228933,-0.501788399752666,-0.041259531930213256,0.4391999912016734
0.484,-0.5698750002353253,-0.5879191854634361,0.036214241076300446,-0.4342719553804143,-0.5029274270517415,-0.042845922961245016,0.46110343223728406
0.485,-0.4703825895320968,-0.5371404987614999,0.029949827345785607,-0.4295618898130988,-0.5040302692330669,-0.044431091894206236,0.46858872013318364
0.486,-0.4372531067938527,-0.5076864685902384,0.029283663338170153,-0.4247968795387519,-0.5050968469482672,-0.04601499351518246,0.46088934002398013
0.487,-0.37798205756044656,-0.4618161694301476,0.005241430212448633,-0.41997753404368887,-0.5061270834581586,-0.04759758264640692,0.45338145248
0.488,-0.3616402185383252,-0.41493869659207727,-0.07003796870189326,-0.41510446976417315,-0.50712090463827,-0.04917881414754938,0.4885304622189663
0.489,-0.34292776478103115,-0.423870079571863,-0.03863322926422767,-0.41017831000756927,-0.5080782389841769,-0.05075864291700256,0.44529726766316624
0.49,-0.425230136656454,-0.4858832753511802,-0.09115885771686864,-0.40519968487261476,-0.5089990176166448,-0.052337023893170284,0.46580369326478305
0.491,-0.47436598618350845,-0.5397708666407464,-0.08718207178425708,-0.4001692311688264,-0.509883174286586,-0.05391391205575161,0.4595715970847281
0.492,-0.5225863274279384,-0.5765304510928464,-0.050910538746638694,-0.3950875923350463,-0.510730645379826,-0.05548926242702525,0.48093002528470497
0.493,-0.5091012253581839,-0.5654362443144593,-0.04367796178565959,-0.38995541835714,-0.5115413699216799,-0.057063030073132494,0.4615531471924227
0.494,-0.5061839082995727,-0.55439132512533,-0.03540523130999547,-0.3847733656848595,-0.5123152895813401,-0.05863517010535908,0.46425581402113303
0.495,-0.47760346653953345,-0.5305676926887404,-0.025142470936571997,-0.3795420971478748,-0.5130523486760727,-0.06020563768141455,0.4632402786328422
0.496,-0.46782642341130776,-0.5252077624632251,-0.041428787484216016,-0.3742622818709943,-0.5137524941752246,-0.06177438800671285,0.44460145030004317
0.497,-0.40069359922122144,-0.5185129977268758,-0.03788378703857553,-0.36893459518857713,-0.5144156757040376,-0.06334137633564894,0.44700432294379827
0.498,-0.3982228735792116,-0.4964272462528214,-0.03558739796026959,-0.36355971855815167,-0.5150418455472742,-0.06490655797287541,0.4542523634746915
0.499,-0.3274255377928966,-0.4552416010029876,-0.018973420496350486,-0.3581383394732531,-0.5156309586526499,-0.06646988827457746,0.4691783832123975
0.5,-0.31342934108376297,-0.4267400197528814,-0.0215563934921754,-0.35267115137548394,-0.5161829726340748,-0.06803132264974539,0.4606162834001736
0.501,-0.33623480079122314,-0.4518441909238269,-0.037905635251452255,-0.34715885356581927,-0.5166978477747035,-0.06959081656144793,0.4554675586801497
0.502,-0.4144405188417076,-0.5305606138066835,-0.07647561721385739,-0.34160215111515896,-0.5171755470297924,-0.07114832552810155,0.4745439512962019
0.503,-0.3320150125569635,-0.48692972949676094,-0.05256038847169119,-0.33600175477414274,-0.5176160360293652,-0.07270380512473949,0.4344174944198659
0.504,-0.3879759315119344,-0.5940164690752765,-0.08086018560547574,-0.3303583808822409,-0.5180192830806855,-0.07425721098427893,0.442785829285485
0.505,-0.435154918195374,-0.65067620903812,-0.08204794796952984,-0.3246727512761256,-0.5183852591705373,-0.07580849879878664,0.42850541396213415
0.506,-0.4384418934306603,-0.5496559106160982,-0.08125238468787806,-0.318945593197343,-0.5187139379673127,-0.07735762432074184,0.47309319950165046
0.507,-0.4221999120047573,-0.47820510734798166,-0.07060277361010484,-0.31317763919929287,-0.5190052958229058,-0.07890454336429976,0.4575615428588012
0.508,-0.3080546612972345,-0.39971306573052545,-0.04704362764264848,-0.30736962705352794,-0.5192593117744148,-0.08044921180655099,0.4704464622268365
0.509,-0.2829779634918726,-0.4188776096794557,-0.05423439042519239,-0.301522299655388,-0.5194759675456498,-0.08199158558878017,0.4576684862397098
0.51,-0.21373143085960003,-0.43508766129254334,-0.02833155416629313,-0.29563640492897497,-0.5196552475484483,-0.08353162071772303,0.4713863366036053
0.511,-0.2263487835472187,-0.49458001910581445,-0.03222091964035523,-0.28971269573148833,-0.5197971388837959,-0.08506927326682014,0.4577155720509073
0.512,-0.2650886793944388,-0.5908481922573202,-0.025739679104046814,-0.28375192975692776,-0.519901631342755,-0.08660449937747135,0.46428392505538363
0.513,-0.3627996111585672,-0.625123481134222,-0.055817077978994656,-0.27775486943917693,-0.5199687174071994,-0.0881372552602858,0.46265545872566854
0.514,-0.400865591905589,-0.6274358412698461,-0.06634252164335834,-0.27172228185448355,-0.5199983922503549,-0.08966749719633117,0.4636740138958823
0.515,-0.39843719712145415,-0.5003926879950591,-0.09138503924700278,-0.26565493862334094,-0.5199906537371467,-0.09119518153838059,0.47996652326768624
0.516,-0.379173509479123,-0.546954343436502,-0.09214345077035203,-0.25955361581179265,-0.5199455024243529,-0.09272026471215804,0.44038465322808956
0.517,-0.3401241590674816,-0.4637354765617774,-0.12473363974559684,-0.25341909383216643,-0.5198629415605646,-0.09424270321758,0.4591851383593036
0.518,-0.29446863037901466,-0.4671312132914655,-0.14095523362094578,-0.2472521573432525,-0.5197429770859522,-0.09576245362999787,0.46250949685096276
0.519,-0.2542602043980747,-0.48753938393561874,-0.11370927283347489,-0.24105359514994043,-0.5195856176318376,-0.0972794726014355,0.4608409264357755
0.52,-0.23352957670217198,-0.48122262877461286,-0.09680643775270587,-0.23482420010232147,-0.5193908745200742,-0.09879371686182586,0.4556146118702204
0.521,-0.2545595457099264,-0.5275665607844109,-0.08117988819658431,-0.2285647689942779,-0.5191587617622306,-0.10030514322024552,0.4541003115436262
0.522,-0.2444725249845154,-0.5317662708302998,-0.020819865768935568,-0.2222761024615658,-0.5188892960585846,-0.10181370856614555,0.47900467537882513
0.523,-0.21951557013192075,-0.5347245472813793,-0.035892312591574604,-0.21595900487940609,-0.5185824967969197,-0.10331936987058271,0.45992335905375087
0.524,-0.3198768771449822,-0.5520031125577561,-0.059179145424797755,-0.2096142842596001,-0.5182383860511314,-0.10482208418744572,0.49015480309823267
0.525,-0.283426340529495,-0.5896058611896124,-0.07528834098925427,-0.20324275214717485,-0.5178569885796384,-0.10632180865468051,0.4673660970032534
0.526,-0.2766635380909192,-0.5868585335592645,-0.08404474178724182,-0.1968452235165811,-0.5174383318236014,-0.1078185004955127,0.4576782026805287
0.527,-0.3104458549536882,-0.5022016100551584,-0.11981870320560559,-0.19042251666745083,-0.5169824459049492,-0.10931211701966811,0.4679134076139322
0.528,-0.34266994888426267,-0.5120142202920837,-0.11951011334715982,-0.18397545311992897,-0.5164893636242107,-0.11080261562458932,0.4627155677152594
0.529,-0.23737704787568267,-0.4246828919644795,-0.1208961974174607,-0.17750485750959571,-0.5159591204581553,-0.11228995379665231,0.4776393958257986
0.53,-0.284416907891773,-0.36213884407308783,-0.09167711610046618,-0.17101155748198565,-0.5153917545572405,-0.11377408911237814,0.4476496876810122
0.531,-0.2037413246682012,-0.42578587520215305,-0.11734975732459253,-0.16449638358672655,-0.5147873067428668,-0.11525497923964324,0.44303213692752075
0.532,-0.09969902280854319,-0.5641218275491126,-0.11022759181523227,-0.15796016917130382,-0.5141458205044407,-0.11673258193888682,0.47196207346345165
0.533,-0.12020339662313041,-0.6208798746936062,-0.09942669666338425,-0.1514037502744702,-0.5134673419962459,-0.11820685506431594,0.4806425040458186
0.534,-0.14682029229446908,-0.6106746336888487,-0.09364544853124178,-0.14482796551930613,-0.5127519200341218,-0.11967775656510668,0.47702878984618524
0.535,-0.2429892667910356,-0.5584460394445437,-0.0756269908674853,-0.13823365600595433,-0.5119996060919528,-0.12114524448660495,0.48465131695834196
0.536,-0.30348897305698846,-0.5006705864822321,-0.10250178958969931,-0.13162166520403562,-0.5112104542979629,-0.12260927697152231,0.48587046662961797
0.537,-0.2829311137174885,-0.46851470956938485,-0.054600912092384775,-0.124992838844761,-0.5103845214308222,-0.12406981226112998,0.46478395043370535
0.538,-0.23899339089953367,-0.39078873799372904,-0.07386024348130216,-0.11834802481275748,-0.5095218669155623,-0.12552680869645028,0.4889070766866015
0.539,-0.11742732547885734,-0.49832039092962627,-0.12193073713357411,-0.11168807303761312,-0.5086225528192996,-0.1269802247194438,0.5043169345578152
0.54,-0.08647008178142912,-0.5489925990122163,-0.1267500525089366,-0.10501383538516561,-0.5076866438467702,-0.1284300188741964,0.4935600552257443
0.541,-0.06807163424027322,-0.5528559524204186,-0.1353557604998711,-0.09832616554854086,-0.5067142073356744,-0.12987614980810042,0.4787625573489068
0.542,-0.026067483391151697,-0.5975266825076514,-0.1617878277133053,-0.09162591893895757,-0.5057053132518319,-0.13131857627303464,0.49345889286722366
0.543,-0.12102093971771453,-0.564443070023359,-0.14835180797453731,-0.0849139525763148,-0.5046600341841477,-0.1327572571265408,0.5071293002409407
0.544,-0.21391271735311249,-0.4749257723618144,-0.0857803178945327,-0.07819112497956857,-0.5035784453393894,-0.13419215133299714,0.5249787426104298
0.545,-0.11683945662647167,-0.5005373141279976,-0.11127229605989944,-0.07145829605692179,-0.5024606245367764,-0.1356232179647882,0.4829379044361228
0.546,-0.20675515789027626,-0.42726157890243444,-0.07322120885773997,-0.06471632699583414,-0.5013066522023804,-0.1370504162034734,0.513731639422319
0.547,-0.1714122407276168,-0.44860385680675186,-0.0661951156757083,-0.05796608015286804,-0.5001166113633391,-0.1384737053409505,0.5011930782143887
0.548,-0.0821892851066542,-0.5190499510163571,-0.08774674480161179,-0.051208418943387894,-0.49889058764188277,-0.13989304478061682,0.5214549271974994
0.549,0.0012867432814840235,-0.5435173403123421,-0.12277178204324676,-0.0444442077311186,-0.49762866924917326,-0.14130839403852757,0.5253987284719486
0.55,-0.03576787018058067,-0.5660420927168143,-0.1434296000175186,-0.037674311717587956,-0.49633094697895785,-0.14271971274454956,0.5185294561914189
0.551,-0.01808634126429422,-0.5486883057972942,-0.16058196663367372,-0.030899596831459382,-0.4949975142010361,-0.14412696064351405,0.5318888006779803
0.552,-0.0648479126876352,-0.5151659025858724,-0.1581344175455927,-0.024120929617771528,-0.4936284668545427,-0.1455300975963641,0.5409706642693551
0.553,-0.05598639937252449,-0.5347045997177721,-0.1568217013783666,-0.017339177127101757,-0.4922239034410442,-0.14692908358129964,0.5282992785179154
0.554,-0.07965749169775242,-0.516954260558944,-0.16798767460220582,-0.010555206804659644,-0.490783925017452,-0.148323878694919,0.5172103569077583
0.555,-0.13645367897847485,-0.45526430136910273,-0.10279598103284956,-0.0037698863793352824,-0.48930863518875184,-0.14971444315335736,0.5533452128456375
0.556,-0.10169819562631705,-0.440764626639663,-0.08651576402022992,0.003015916247291303,-0.4877981401005488,-0.15110073729342058,0.5491646538573759
0.557,-0.06175405175062788,-0.49576981484287136,-0.09881268974261126,0.00980133311196288,-0.4862525484314311,-0.15248272157371784,0.5489672868910579
0.558,-0.05401602746915734,-0.46037920075483535,-0.07857918184561238,0.01658549630076294,-0.48467197138515006,-0.15386035657578864,0.5368924216196378
0.559,0.0916054708776197,-0.5584181609754495,-0.11403418986818312,0.023367538060132625,-0.4830565226826191,-0.15523360300522732,0.5599909810627985
0.56,0.03230302685246163,-0.5159341465348044,-0.15914373679372443,0.030146590907861842,-0.4814063185537325,-0.15660242169280406,0.5756565048465646
0.561,0.062327274847379606,-0.5697327425365046,-0.16697682391098376,0.03692178774404834,-0.47972147772900164,-0.15796677359558128,0.5526732370428011
0.562,0.014961000277654905,-0.48898008553196176,-0.1931342725107159,0.04369226196200786,-0.47800212143101356,-0.15932661979802856,0.5582443545340723
0.563,0.025378559437866478,-0.450464474219584,-0.18941116310785722,0.050457147559117475,-0.47624837336570813,-0.16068192151313157,0.5473095526044611
0.564,-0.055110712227470764,-0.41578920499895955,-0.18036846792752328,0.05721557924759287,-0.4744603597134776,-0.16203264008349955,0.5544386518532325
0.565,-0.0630252260464552,-0.4021903038473582,-0.1367986411137925,0.06396669256515554,-0.47263820912008936,-0.163378736982466,0.5531595556984763
0.566,-0.018166338711643082,-0.4486846029500413,-0.09514861561974117,0.07070962398561301,-0.47078205268742823,-0.1647201738151896,0.5706054081267188
0.567,-0.008964242224158887,-0.5211110532665815,-0.09792039707207169,0.07744351102930817,-0.46889202396406526,-0.16605691231974828,0.5679272566673134
0.568,0.09565743619724418,-0.5756341972967731,-0.10712265747853521,0.08416749237343847,-0.46696825893564803,-0.1673889143682308,0.5794711903407291
0.569,0.08920848235892166,-0.5733873523776855,-0.12154986236760264,0.09088070796222718,-0.46501089601511697,-0.1687161419678243,0.5672756771309646
0.57,0.1488312465712951,-0.5042211089592616,-0.1634153767709264,0.09758229911692978,-0.46302007603274714,-0.17003855726189812,0.5789486251897004
0.571,0.11141561822342005,-0.4836771308610965,-0.17436099310080133,0.10427140864566976,-0.46099594222601464,-0.17135612253108287,0.5724976023110703
0.572,0.0334925933591185,-0.3909092131134859,-0.1913631714796219,0.11094718095307875,-0.4589386402292922,-0.17266880019434735,0.5891715457160256
0.573,0.10787049705771243,-0.3817613550081444,-0.17126048744027486,0.11760876214973515,-0.45684831806336945,-0.17397655281006993,0.5703133614335485
0.574,-0.007442777854755773,-0.4616803510580384,-0.16420340111284418,0.12425530016138447,-0.45472512612480365,-0.17527934307710638,0.594700675381032
0.575,-0.004758402203391409,-0.501326914224918,-0.16002686139706937,0.13088594483792518,-0.45256921717509957,-0.17657713383585438,0.5925173713369005
0.576,0.07246748420213679,-0.5312195840433148,-0.14479214496075138,0.13749984806215315,-0.45038074632971675,-0.1778698880693122,0.6010140190093988
0.577,0.08255324330352153,-0.5484730412932938,-0.16120681830433223,0.14409616385824142,-0.448159871046911,-0.17915756890413612,0.5819954813200283
0.578,0.192618923300342,-0.48815754601947586,-0.13871320037298757,0.15067404849994817,-0.4459067511164039,-0.18044013961169122,0.6126594170699734
0.579,0.21719426784899343,-0.45463515513518943,-0.12584563592066494,0.15723266061853733,-0.44362154864788644,-0.1817175636090991,0.6041979779121514
0.58,0.20663117238400092,-0.36998609261440074,-0.15582076017929927,0.16377116131039482,-0.4413044280593567,-0.18298980446028157,0.6133682248351668
0.581,0.18884728865639425,-0.4091059194928413,-0.14551566050315615,0.17028871424433475,-0.4389555560652878,-0.18425682587699985,0.5913018766626406
0.582,0.07615379503988638,-0.39806336385362684,-0.1759013040398497,0.17678448576857145,-0.4365751016646354,-0.185518591719889,0.6018097798729112
0.583,0.01714830969391027,-0.4331586038093149,-0.19891520275242164,0.18325764501735115,-0.43416323612867663,-0.18677506599948993,0.6150204564242016
0.584,0.0686336410262235,-0.5053288504544987,-0.19169208888260994,0.18970736401722763,-0.4317201329886876,-0.18802621287727495,0.6391879508974733
0.585,0.145558395930354,-0.507775161565507,-0.18355702872679494,0.19613281779296518,-0.4292459680234593,-0.1892719966666705,0.6319887639326669
0.586,0.25246659396236526,-0.4701566731478706,-0.14930580082349745,0.2025331844730631,-0.4267409192466484,-0.19051238183407496,0.6301994823330984
0.587,0.2771501599698241,-0.4822951457741611,-0.154525136627635,0.20890764539487808,-0.4242051668939716,-0.19174733299987146,0.6205286734291464
0.588,0.28479536519469906,-0.479489750331165,-0.15413918857928016,0.21525538520933912,-0.42163889341023575,-0.19297681493943833,0.6213244970391745
0.589,0.20130655690353225,-0.3845303249127,-0.1555500714342799,0.221575591985238,-0.41904228343621214,-0.19420079258415282,0.6408987591000399
0.59,0.12086990490496967,-0.386346366478028,-0.166838163455464,0.2278674573130804,-0.4164155237953527,-0.19541923102239184,0.6489663040516641
0.591,0.05207515239839969,-0.4188908344546954,-0.17885719349343143,0.23413017640849157,-0.413758803480346,-0.19663209550052735,0.6460447725774937
0.592,0.11629418237100317,-0.465550014332028,-0.19615041839307665,0.24036294821515328,-0.4110723136395219,-0.19783935142391826,0.6670307358956274
0.593,0.1690491801311499,-0.4481742058216116,-0.16829435081648333,0.24656497550726633,-0.4083562475630965,-0.1990409643578961,0.6413053898413812
0.594,0.23689472388433053,-0.5104660674611685,-0.19005111271967273,0.25273546499152316,-0.40561080066926614,-0.2002369000287485,0.654626165944904
0.595,0.2220126890083098,-0.5318308745673772,-0.2257265545514861,0.2588736274085751,-0.4028361704901479,-0.20142712432469598,0.635134341046349
0.596,0.29391457179710373,-0.44891110453447536,-0.19323395724461317,0.26497867763398847,-0.40003255665756554,-0.20261160329686514,0.6609636099390497
0.597,0.22388592936996474,-0.3378727430706847,-0.17803766715576116,0.2710498347786666,-0.3972001608886882,-0.20379030316025687,0.6790420830131833
0.598,0.26161357067993446,-0.340347699539226,-0.1839283677960583,0.27708632228873364,-0.39433918697151554,-0.20496319029471036,0.6518899533608586
0.599,0.22747773926039377,-0.3429025230722077,-0.13787867741637827,0.2830873680448607,-0.3914498407502159,-0.20613023124586125,0.6774720086234668
0.6,0.1965649596723955,-0.4288476938548501,-0.1517575468594275,0.28905220446102897,-0.38853233011031674,-0.20729139272609684,0.6876371918435524
0.601,0.21892376503662334,-0.42721696688531535,-0.14652232498591167,0.29498006858270936,-0.3855868649637459,-0.20844664161550502,0.6650463608870881
0.602,0.22661319083759557,-0.5064175088882912,-0.19038749047770248,0.30087020218445126,-0.38261365723373075,-0.209595944962819,0.6819043042737376
0.603,0.29775468459632265,-0.46123733578072584,-0.22003094105467869,0.3067218518668666,-0.37961292083954845,-0.21073926998635734,0.6982346370353059
0.604,0.2772272533070007,-0.4367950805961216,-0.228833251079224,0.3125342691529945,-0.3765848716811356,-0.21187658407495838,0.6850227005221015
0.605,0.34837788858579594,-0.30617209690357317,-0.21032009059450424,0.3183067105840402,-0.37352972762355524,-0.2130078547889114,0.694675435277701
0.606,0.34381113167232974,-0.32998516016727725,-0.22678096848659127,0.3240384378144691,-0.37044770848131986,-0.21413304986088133,0.6669252339144056
0.607,0.3548887197723546,-0.32812905530422715,-0.19293185642684746,0.32972871770644724,-0.3673390360025782,-0.21525213719682898,0.6983559495870204
0.608,0.309781192796232,-0.41537990434337996,-0.1835035172913914,0.33537682242361655,-0.3642039338531585,-0.2163650848769268,0.7003747632402606
0.609,0.3239591933671174,-0.40407971404116816,-0.1630299042199606,0.34098202952418993,-0.361042627600477,-0.2174718611564693,0.681230878632233
0.61,0.19435390815294706,-0.4621567805127735,-0.16496447114144244,0.34654362205336037,-0.3578553446973095,-0.21857243446677788,0.6885509065588934
0.611,0.24486118950939675,-0.43181012708248423,-0.1666375583646362,0.352060888635004,-0.3546423144654242,-0.21966677341610233,0.7103482128603429
0.612,0.2968693138264353,-0.3715766071428386,-0.17370106919814504,0.3575331235626718,-0.35140376807908474,-0.22075484679051552,0.7024449029859146
0.613,0.3934960671776009,-0.2772359738441499,-0.2317949082635929,0.3629596268898557,-0.34813993854841513,-0.2218366235548038,0.7223978748171451
0.614,0.4163373521817379,-0.28960824611750907,-0.2523047784923547,0.36833970451951653,-0.34485106070263594,-0.22291207285335252,0.7157604192671829
0.615,0.44370031497282,-0.32592867034229006,-0.2539687536186846,0.3736726682928673,-0.3415373711731696,-0.22398116401102539,0.7156861584228535
0.616,0.4076658195757026,-0.3513351357921844,-0.2502691644808487,0.3789578360773935,-0.33819910837661277,-0.22504386653404032,0.7159402122523888
0.617,0.35638250478974676,-0.38322285604239975,-0.1998657743821143,0.3841945318541033,-0.33483651249758495,-0.22610015011083887,0.7244746086964018
0.618,0.31407537912893724,-0.38602688431658505,-0.15536446966167183,0.38938208580399786,-0.33144982547144514,-0.2271499846129506,0.7335743474128715
0.619,0.27792777504230726,-0.40198695112230876,-0.15543737041094635,0.3945198343937444,-0.32803929096688605,-0.22819334009585268,0.7333220163877996
0.62,0.2741547014866142,-0.4027879466543059,-0.15972014975218812,0.39960712046055086,-0.32460515436840326,-0.229230186799824,0.7248162665069526
0.621,0.36979941336508243,-0.3212179969289616,-0.18968086531813408,0.40464329329622084,-0.32114766275863754,-0.23026049515079355,0.7477420905862096
0.622,0.4018410786028125,-0.35050505061490106,-0.2279889075141346,0.4096277087303856,-0.31766706490060065,-0.23128423576118476,0.7437375654488491
0.623,0.473559454670851,-0.29695519766613754,-0.2409875997436609,0.414559729212899,-0.3141636112197741,-0.23230137943075319,0.7434443429224926
0.624,0.5414320584592532,-0.24936560906028107,-0.23914234348046562,0.4194387238953845,-0.3106375537860928,-0.23331189714741943,0.7428981169594462
0.625,0.4770782022161629,-0.2952037494497472,-0.2549786952420613,0.4242640687119284,-0.30708914629580986,-0.2343157600880971,0.7507744731027404
0.626,0.4783276246289138,-0.2719447183071344,-0.25955007813417447,0.4290351464589017,-0.3035186440532407,-0.2353129396195138,0.7257697713790096
0.627,0.3037839749072669,-0.3970447353450318,-0.22235548089210316,0.4337513468739061,-0.2999263039523972,-0.23630340729902932,0.7536215830305765
0.628,0.28591989376868493,-0.3715602650355009,-0.1731494682786821,0.43841206671383276,-0.29631238445850205,-0.237287134875446,0.7733839326648024
0.629,0.3094946768197606,-0.3864748449624235,-0.1627770029499487,0.4430167098320202,-0.2926771455893932,-0.2382640942898146,0.7593173561446955
0.63,0.44768614986872257,-0.28617140129265217,-0.1558862145092307,0.4475646872545092,-0.2890208488968169,-0.23923425767623496,0.7606549346777391
0.631,0.4782986988315574,-0.23500866503072235,-0.18491061134415748,0.4520554172553762,-0.2853437574476074,-0.24019759736265067,0.7554781986239881
0.632,0.5590060067061426,-0.2036336726032405,-0.22533967716103107,0.4564883254311416,-0.2816461358047619,-0.2411540858716379,0.7715170535087064
0.633,0.5564543355809887,-0.26485153599070765,-0.24830082534256603,0.460862844774241,-0.27792825000840277,-0.24210369592118994,0.7662388614672415
0.634,0.37223384043988816,-0.3825055827713226,-0.287021210954485,0.46517841574554936,-0.27419036755663806,-0.24304640042549497,0.7872666922386895
0.635,0.4200283735426383,-0.36739419721252825,-0.26016396972133754,0.46943448634595275,-0.2704327573863158,-0.24398217249570855,0.7641669112668483
0.636,0.4027685444189635,-0.3634123538282547,-0.23625245649131266,0.47363051218695257,-0.2666556898536717,-0.2449109854407208,0.772077853215998
0.637,0.3914047000806971,-0.34958816972240797,-0.22235172674919654,0.4777659565602979,-0.2628594367148808,-0.24583281276791755,0.7732700526925933
0.638,0.4841985923128205,-0.21511261945107882,-0.18503833056470947,0.4818402905066356,-0.25904427110650163,-0.24674762818393567,0.8054705274052859
0.639,0.4762359428384376,-0.20828397586947694,-0.2004656052074756,0.4858529928831673,-0.2552104675258257,-0.2476554055954139,0.784153291316724
0.64,0.47930069380125606,-0.21898360657157007,-0.19744028505329914,0.48980355043031026,-0.25135830181112895,-0.2485561191097364,0.7828283625000313
0.641,0.4692147787482985,-0.18391027363083118,-0.1965599425245996,0.49369145783734625,-0.24748805112182268,-0.24944974303577153,0.7672928821236453
0.642,0.5794374503842399,-0.22148488732528532,-0.19926988701865828,0.4975162178070558,-0.24359999391851525,-0.2503362518846047,0.7844181892066351
0.643,0.4925753378893051,-0.35269511040917123,-0.2577935293245345,0.5012773411193266,-0.23969440994297445,-0.2512156203702649,0.8046638204003047
0.644,0.42104286592437434,-0.36405013721877516,-0.2681791434748979,0.5049743466937288,-0.23577158019800157,-0.2520878234104467,0.8075901696410315
0.645,0.43293853639651275,-0.3377983783294019,-0.2755128145321812,0.5086067616510499,-0.23183178692721468,-0.2529528361272254,0.7964635931639574
0.646,0.3934069348104789,-0.2809542595470277,-0.2633882203505303,0.5121741213737799,-0.22787531359473867,-0.2538106338477662,0.8001044438517477
0.647,0.5308857761407191,-0.13961659599394097,-0.2017748462769105,0.51567596956554,-0.22390244486481362,-0.2546611921050285,0.8325449615739522
0.648,0.6311502177191165,-0.21558368102158562,-0.17336879342196554,0.5191118583094468,-0.2199134665813101,-0.25550448663846365,0.845557171367014
0.649,0.5998185290351961,-0.2231557830824929,-0.19530527740825654,0.5224813481254043,-0.21590866574716647,-0.2563404933947064,0.8299719020398031
0.65,0.5549621440869875,-0.32705409891718434,-0.2136399710652639,0.5257840080263181,-0.21188833050373615,-0.25716918852826176,0.8350027747072142
0.651,0.5144803067621836,-0.3388937569997723,-0.23904364576409093,0.5290194155732221,-0.20785275011005763,-0.2579905484021848,0.8357657741276381
0.652,0.4590127906414507,-0.3381070810885718,-0.2687560474425919,0.5321871569293117,-0.20380221492204373,-0.2588045495887549,0.8393006955632836
0.653,0.6062891482529938,-0.25164195746962864,-0.1964136337244107,0.5352868269128779,-0.19973701637158783,-0.25961116887014385,0.8073197796511425
0.654,0.5834086437727835,-0.26938391437177817,-0.20733256938019543,0.5383180290491325,-0.19565744694559903,-0.2604103832390779,0.7986206863859044
0.655,0.4765236210904893,-0.21478448202082073,-0.25908951078344006,0.5412803756209216,-0.19156380016495514,-0.26120216989949474,0.8293786781841582
0.656,0.4487041139743372,-0.281997938754083,-0.24892539474999995,0.544173487718318,-0.18745637056338527,-0.26198650626719294,0.7940220822377377
0.657,0.4067611776804364,-0.2732062527080254,-0.2673625785007531,0.5469969952870866,-0.1833354536662798,-0.2627633699704766,0.7914671777416564
0.658,0.3847878306663825,-0.18342485936579572,-0.2842486280916238,0.5497505371760171,-0.17920134596942455,-0.2635327388507933,0.7899593457671461
0.659,0.5069695292917994,-0.08991219180167677,-0.2713908433322043,0.5524337611831199,-0.17505434491767188,-0.2642945909633661,0.7986667476517864
0.66,0.5113694712580137,-0.10268623534053707,-0.2951231855032278,0.5550463241006748,-0.17089474888353648,-0.26504890457781916,0.7746474455290162
0.661,0.5861884477383219,-0.12596373538668718,-0.25584976128540277,0.5575878917591299,-0.1667228571457293,-0.2657956581787984,0.779479005674071
0.662,0.6471428049402237,-0.2199614017819672,-0.2523202806488959,0.5600581390698459,-0.16253896986762603,-0.2665348304665844,0.7874245264242076
0.663,0.6071095557419971,-0.2544926578014762,-0.24036768440033224,0.5624567500666765,-0.1583433880756675,-0.2672664003577003,0.778757671735002
0.664,0.5569863907289966,-0.2780776318666602,-0.19264278832520282,0.5647834179463842,-0.15413641363770472,-0.267990346985513,0.8040738111114394
0.665,0.5927741255597673,-0.20706661311106148,-0.18140012052598686,0.5670378451078829,-0.14991834924127664,-0.2687066497008286,0.7896206518294633
0.666,0.5310051086555376,-0.1762964542279068,-0.20065932476960427,0.5692197431903034,-0.1456894983718336,-0.2694152880724808,0.7946810506908284
0.667,0.5020003470408972,-0.13848045429057276,-0.23930202129492506,0.5713288331098776,-0.14145016529090285,-0.27011624188791444,0.7915829741141238
0.668,0.49949769582424863,-0.13254299467215788,-0.25193493421613766,0.5733648450956351,-0.1372006550141945,-0.2708094911537616,0.7817070692375321
0.669,0.48138859917669496,-0.13327198881713995,-0.2891802768656927,0.5753275187239102,-0.1329412732896593,-0.2714950160964117,0.7942615689332353
0.67,0.5123254480526285,-0.11424879967244032,-0.2794396405982391,0.5772166029516516,-0.12867232657548727,-0.272172797162576,0.7860453194667266
0.671,0.5519004064643722,-0.0857075179021878,-0.27459673672858037,0.5790318561485333,-0.12439412201805977,-0.27284281501984464,0.7750142056139375
0.672,0.5150102304538112,-0.06309542001894083,-0.2645559817653241,0.5807730461278615,-0.12010696742985187,-0.27350505055723884,0.7568434643724407
0.673,0.6132148386597143,-0.1920722645849652,-0.28439308639010014,0.5824399501762725,-0.11581117126728255,-0.2741594848857555,0.7815135669312975
0.674,0.6039934421237573,-0.14880215137586028,-0.2963382077576823,0.5840323550822203,-0.11150704260852502,-0.274806099338906,0.7583452188398749
0.675,0.6451869520000776,-0.2547299250475777,-0.27885542383539597,0.5855500571632485,-0.10719489113126585,-0.27544487547324886,0.7762593596088595
0.676,0.6949999045856284,-0.21215851917811274,-0.2471623246613565,0.586992862292042,-0.10287502709042518,-0.2760757950689157,0.7708576370381846
0.677,0.7357051725993832,-0.2059832718222888,-0.26376212901076573,0.5883605859212587,-0.09854776129583565,-0.2766988401301305,0.7518014657996637
0.678,0.5794581355425344,-0.12288433842972231,-0.22075413923068693,0.5896530531071341,-0.09421340508987679,-0.27731399288572384,0.7694414915512677
0.679,0.5348685770012801,-0.09026993081737637,-0.2340440713471154,0.590870098531858,-0.08987227032507782,-0.27792123578963884,0.7668513006644386
0.68,0.4746956998789883,-0.039405763863213546,-0.23636046657743748,0.5920115665247208,-0.085524669341677,-0.2785205515214321,0.7651094870472406
0.681,0.4389242307352564,-0.06246096741793504,-0.22916000242788634,0.5930773110820243,-0.08117091494515052,-0.27911192298676807,0.762748638829134
0.682,0.5020466193964194,-0.022844044019401537,-0.19868707844727604,0.5940671958857576,-0.07681132038370767,-0.27969533331790536,0.7513704854964982
0.683,0.6247886521924669,-0.08552212294392124,-0.23278234174229828,0.5949810943210324,-0.07244619932574993,-0.2802707658741795,0.7645128302998665
0.684,0.6082465042440801,-0.11589110890709393,-0.23714907246479588,0.5958188894922795,-0.06807586583730638,-0.28083820424247646,0.7473759371075838
0.685,0.606049569797108,-0.11773937143914057,-0.26400124058536417,0.5965804742381994,-0.06370063435943382,-0.2813976322377012,0.7409469105423088
0.686,0.6692748823775941,-0.17491580407592872,-0.3140228948442225,0.5972657511454699,-0.05932081968559442,-0.2819490339032393,0.760151709692191
0.687,0.6129813768320964,-0.16553473340238287,-0.3156327485960535,0.5978746325612062,-0.05493673693900801,-0.28249239351141203,0.761507284974582
0.688,0.655920425328253,-0.09738730220265052,-0.299184938760937,0.598407040604172,-0.05054870154997657,-0.2830276955639248,0.7557584162163192
0.689,0.6790992651284679,-0.08357701055896374,-0.29843066408824503,0.5988629071747418,-0.04615702923319112,-0.2835549247923098,0.7442115305973803
0.69,0.7389501149146301,-0.14054442580568183,-0.27818417448919674,0.5992421739636105,-0.04176203596501595,-0.2840740661583608,0.721638019006446
0.691,0.5605429858789136,-0.039797383512807066,-0.2285831445140894,0.5995447924592525,-0.03736403796075398,-0.2845851048545624,0.760905536558808
0.692,0.6456232691827021,-0.0782424531889787,-0.27647603484427485,0.5997707239541268,-0.03296335165189721,-0.28508802630451247,0.7178776407453209
0.693,0.48137973708041953,-0.033409630903185134,-0.25067012135739675,0.5999199395496272,-0.028560293663356582,-0.2855828161633377,0.7465850106900991
0.694,0.5785087023404063,-0.054128148721622325,-0.220998194232937,0.5999924201597794,-0.02415518079068484,-0.286069460318103,0.7630884884605121
0.695,0.5527175355689204,-0.021189306299031936,-0.2216793449879851,0.5999881565136822,-0.019748329977280165,-0.2865479448882139,0.7377725241792793
0.696,0.5914063942181331,-0.08262963725707166,-0.25582726531879196,0.5999071491566931,-0.015340058291583802,-0.28701825622581245,0.7376869121115308
0.697,0.6502449798655123,-0.14901585027269823,-0.26608859821087055,0.5997494084503585,-0.01093068290426871,-0.2874803809161665,0.7369570638953373
0.698,0.7007156434530606,-0.150608820095613,-0.26977082967852234,0.5995149545710886,-0.006520521065416207,-0.28793430577805246,0.7329962255867833
0.699,0.6618431799377621,-0.06485819735154774,-0.3165139006342587,0.5992038175075767,-0.0021098900816938467,-0.2883800178641311,0.7570384923523754
0.7,0.7019365601112295,-0.06505203780176845,-0.2503035456628923,0.598816037056963,0.0023008927064777024,-0.28881750446131693,0.7169259733060374
0.701,0.7250035230654925,0.0028765294725872333,-0.2586766765880319,0.5983516628197445,0.006711509947755597,-0.28924675309114095,0.7136319606687596
0.702,0.6507174900997552,0.06827359778641179,-0.2937022021279959,0.5978107541934308,0.01112164430270654,-0.28966775151010626,0.7195393043474169
0.703,0.49922280715284173,0.04399715064749385,-0.29680511174726193,0.5971933803649462,0.015530978466642262,-0.2900804877100374,0.7425718407496861
0.704,0.5486384219221835,0.03193115574400366,-0.32688058077294113,0.5964996203017805,0.01993919519244558,-0.2904849499184232,0.7129717945248422
0.705,0.5044656168966464,-0.04895139916880872,-0.30260993766322825,0.5957295627418882,0.024345977313399228,-0.2908811265987521,0.723270252688841
0.706,0.5341479454582528,-0.052221726940075354,-0.2546514008559711,0.5948833061823382,0.02875100776600431,-0.2912690064508413,0.7291710435744336
0.707,0.623235683242218,-0.025600883392058675,-0.23400538284965713,0.5939609588667148,0.033153969612791295,-0.2916485784111595,0.7238789194444762
0.708,0.6651005349437864,-0.0438566159394909,-0.2244031248341366,0.5929626387712732,0.03755454606512661,-0.2920198316531417,0.7249600844804305
0.709,0.6417978496579809,-0.033499877173622114,-0.23784968031423936,0.5918884735898488,0.041952420506001516,-0.2923827555874988,0.7279710245758768
0.71,0.6429344296007632,-0.06194607139889499,-0.22405539048316753,0.5907386007175233,0.046347276512815644,-0.2927373398625191,0.7128658657481501
0.711,0.6281699985224075,-0.0881121771292334,-0.23785989725899306,0.5895131672330524,0.05073879788014192,-0.29308357436436383,0.7018943027992179
0.712,0.6588878898533,0.011447604953972656,-0.2501745567366049,0.5882123298800519,0.05512666864247577,-0.2934214492173554,0.7073572278101264
0.713,0.7445040992048838,0.08460577603426428,-0.25366298431932643,0.5868362550469488,0.05951057309697182,-0.29375095478425955,0.6997335782680698
0.714,0.6000136620555392,0.09333622976288494,-0.3220598259351833,0.5853851187456997,0.06389019582615466,-0.2940720816665595,0.7322723693311186
0.715,0.6512539255414009,0.14355184374030752,-0.30037392902797533,0.583859106589276,0.06826522172061604,-0.29438482070472466,0.693833298471862
0.716,0.5271245418067693,0.09596553092660032,-0.3234583465278661,0.5822584137679236,0.07263533600168531,-0.2946891629784717,0.7042342100623507
0.717,0.5393355191683925,0.09422291162834973,-0.29099588641848007,0.5805832450241962,0.07700022424407608,-0.29498509980701887,0.6786373774019451
0.718,0.45867829647071684,-0.023395283504117417,-0.30044499737385943,0.5788338146267658,0.0813595723985119,-0.2952726227493337,0.6964527387107788
0.719,0.5136671585390041,0.0075875955075502535,-0.29184428702379267,0.5770103463430173,0.08571306681431823,-0.29555172360437365,0.6896247318857591
0.72,0.6059222589259747,0.004949152844671319,-0.2674589469487666,0.5751130734104256,0.09006039426199246,-0.2958223944113203,0.6993891696317366
0.721,0.655214163955022,0.02961292389675457,-0.2782499048622007,0.5731422385067236,0.09440124195573904,-0.2960846274498061,0.697912854906939
0.722,0.703469376021332,0.07152447347853341,-0.2559629494378134,0.571098093718861,0.09873529757597282,-0.2963384152401349,0.7047065801986204
0.723,0.6886140660152404,0.08578440098201448,-0.25983189799691775,0.5689809005107592,0.10306224929179322,-0.2965837505434948,0.701964117094336
0.724,0.626569045334232,0.08171031528877201,-0.2620059623410544,0.5667909296898703,0.10738178578341658,-0.29682062636216533,0.6833282189348431
0.725,0.6526560443011312,0.08512176278033294,-0.23728362144178788,0.5645284613725354,0.11169359626457842,-0.29704903593971627,0.6710017437458204
0.726,0.6734989502999607,0.14908860594076453,-0.21987514444849887,0.5621937849481577,0.11599737050489291,-0.29726897276120096,0.6706195069531609
0.727,0.6027065258472044,0.16904596588291587,-0.24364786672312846,0.5597871990421868,0.12029279885217219,-0.297480430553342,0.6823879508084919
0.728,0.57103323398828,0.12191700103190212,-0.27443504458309026,0.5573090114779193,0.12457957225470881,-0.2976834032847099,0.6788587465968864
0.729,0.5493554066487965,0.08345327333285121,-0.28273857134671465,0.55475953923713,0.1288573822835079,-0.29787788516589536,0.6782705565957072
0.73,0.5099512483501825,0.04163922878980236,-0.3089411635906455,0.5521391084195223,0.13312592115448166,-0.2980638706496745,0.6669641441681754
0.731,0.4930483140824329,0.039039121339163305,-0.32812857467316275,0.5494480542010214,0.13738488175059263,-0.2982413544311667,0.6888422533633961
0.732,0.4941832808580284,0.07155399547192867,-0.2923941800256516,0.5466867207909002,0.1416339576439492,-0.2984103314479864,0.6521330406066289
0.733,0.5094517701563162,0.024909655123226487,-0.31546678054497046,0.5438554613877512,0.14587284311785587,-0.298570796880387,0.6609294124627213
0.734,0.5096704445573441,0.06482678512317519,-0.32194940116677956,0.5409546381343122,0.15010123318880567,-0.2987227461513988,0.6532993633262076
0.735,0.6108966475518436,0.14364580101963584,-0.3072378162020101,0.5379846220711416,0.15431882362842655,-0.2988661749269592,0.6619265300980605
0.736,0.6543169733062743,0.19836269695332365,-0.2626185506119233,0.5349457930891619,0.15852531098536896,-0.2990010791160365,0.6776024707265501
0.737,0.6681092105077889,0.16918176313510958,-0.26847650591906175,0.5318385398810676,0.16272039260713758,-0.2991274548707465,0.6573999980488581
0.738,0.6817540959335918,0.24306194944160514,-0.22816862242962646,0.528663259891606,0.16690376666186993,-0.2992452985864622,0.6602800495602311
0.739,0.5708432793759002,0.13844218773602027,-0.23279597079720443,0.5254203592667441,0.1710751321600493,-0.29935460690191706,0.6652424179619584
0.74,0.5461641414373251,0.16678302079323815,-0.2526430672652909,0.5221102528017155,0.1752341889761637,-0.29945537669930006,0.6514567949902547
0.741,0.4791658845881382,0.09875969690145832,-0.26263658893554875,0.5187333638879673,0.17938063787029845,-0.2995476051043454,0.6582811162457104
0.742,0.4615510371270188,0.10431392531801637,-0.27518117313241935,0.5152901244590035,0.18351418050966464,-0.2996312894864141,0.6549075516090271
0.743,0.4779111309486211,0.09974959524937653,-0.2639941266831315,0.5117809749351354,0.18763451949006704,-0.29970642745856907,0.6365375743948508
0.744,0.47132919863284606,0.08484863071540054,-0.2628733761197333,0.5082063641671515,0.19174135835729852,-0.29977301687764324,0.6427442102046237
0.745,0.549996736569702,0.12977874624057006,-0.2780077951905992,0.5045667493789016,0.19583440162847282,-0.29983105584430064,0.6507796362128769
0.746,0.5858334588997841,0.1833996282611412,-0.29885787790535334,0.5008625961088171,0.19991335481328268,-0.2998805427030908,0.6601194321590447
0.747,0.5955649774205513,0.23244264328340425,-0.31755716454376487,0.4970943781503639,0.20397792443518695,-0.29992147604249547,0.6583166753705694
0.748,0.5760245445809791,0.2462463366040687,-0.2960873087683116,0.49326257749143737,0.208027818052529,-0.29995385469496955,0.6662957251967778
0.749,0.5928225449173059,0.24797322004649064,-0.3343506577396731,0.4893676842527166,0.2120627442795741,-0.2999776777369737,0.6451836005656644
0.75,0.5993581048749844,0.2625162122981,-0.32439580877322494,0.4854101966249686,0.21608241280747778,-0.29999294448900127,0.6326064787339456
0.751,0.638212367794368,0.2752378147110751,-0.2890276964486284,0.4813906208053298,0.22008653442516976,-0.2999996545155973,0.6350068688757214
0.752,0.6047401376721754,0.19775540977021525,-0.2653693275399088,0.47730947093255727,0.22407482104016552,-0.2999978076253711,0.6326170672178535
0.753,0.5439132206806792,0.16345939326909387,-0.2571719640844153,0.47316726902126366,0.22804698569929288,-0.2999874038710017,0.6272955353077444
0.754,0.41167940524133384,0.0815139024332304,-0.2388167065244237,0.4689645448951518,0.23200274260933673,-0.2999684435492363,0.634993319406285
0.755,0.39252705108951214,0.13565821683964965,-0.2400316762576752,0.46470183611924043,0.23594180715760457,-0.2999409272008819,0.6337593791903388
0.756,0.3808042447485315,0.12821192566161455,-0.26143851623372344,0.46037968793110895,0.23986389593240065,-0.2999048556107896,0.6127279936810675
0.757,0.4499723211037889,0.2486869572835066,-0.27849691078457367,0.45599865317115584,0.24376872674342018,-0.2998602298078327,0.6380785950374269
0.758,0.4573297527174838,0.16999950500462122,-0.2480473151786058,0.4515592922118827,0.2476560186420513,-0.299807051064877,0.6011862863685593
0.759,0.5405269443912714,0.2529777967218512,-0.28200738463044595,0.44706217288622274,0.25152549194158796,-0.29974532089874434,0.6187654256445325
0.76,0.6043364302995147,0.2585391656896799,-0.31893447298024397,0.44250787041490447,0.25537686823735567,-0.2996750410701699,0.6334341760306293
0.761,0.5528432746752381,0.26677720487042045,-0.3200370494304178,0.437896967332881,0.2592098704267396,-0.2995962135837514,0.6251381777134313
0.762,0.5102663011432576,0.28363308717769253,-0.31531326727318787,0.43323005341481663,0.26302422272912424,-0.2995088406878922,0.611772786621021
0.763,0.39656766032987584,0.18627226543668357,-0.3099590055911955,0.42850772559964695,0.26681965070573455,-0.29941292487473725,0.6378892506775431
0.764,0.5490572948917077,0.2686608446799867,-0.29225735157449007,0.4237305879142308,0.2705958812793804,-0.2993084688801018,0.6071892864538828
0.765,0.5964848155043144,0.27584234637574906,-0.303762182594583,0.4188992513960837,0.27435264275410676,-0.2991954756833935,0.5866534607400461
0.766,0.46995057340013885,0.16718110315073315,-0.2873676048784202,0.4140143340152262,0.2780896648347391,-0.2990739485075273,0.6143163563771277
0.767,0.5151487878666929,0.14279748915609805,-0.3309832874678287,0.409076460595138,0.2818066786463333,-0.29894389081883366,0.5857478290010555
0.768,0.390848048715455,0.1720704309699257,-0.29894337980274555,0.404086262732835,0.28550341675352,-0.2988053063269596,0.59531902461524
0.769,0.3063905426413249,0.27166725305461087,-0.27050874406603087,0.399044378718088,0.2891796131797447,-0.2986581989847629,0.6109757291080514
0.77,0.30300718486056666,0.2990180576180711,-0.2492445420472171,0.3939514534517739,0.29283500342640806,-0.29850257298819943,0.5961786565277594
0.771,0.41715385973601044,0.3798743263614803,-0.2215212124064963,0.3888081383633927,0.2964693244918923,-0.29833843277620326,0.6068823887632254
0.772,0.39921346018428516,0.32424850402997835,-0.22232557733624697,0.38361509132774113,0.30008231489048703,-0.29816578303056024,0.5842239123389582
0.773,0.5288156429681695,0.3159196356830155,-0.25693965415005443,0.378372976580763,0.30367371467120186,-0.29798462867577435,0.6066287977058592
0.774,0.45804195098979655,0.31812708464404055,-0.24258977318461206,0.3730824646345931,0.3072432654364681,-0.2977949748789276,0.5742415159925847
0.775,0.5025817418753279,0.20002481802805164,-0.3201418380133695,0.3677442321917859,0.31079071036073325,-0.29759682704953183,0.6085621929769223
0.776,0.4590121647967095,0.25518331873959127,-0.3111358794833047,0.3623589620587659,0.3143157942089359,-0.2973901908393754,0.5852399818922394
0.777,0.34685114990206584,0.24124561682066784,-0.31821471268403745,0.35692734305848745,0.3178182633548726,-0.29717507214236116,0.6075237052565508
0.778,0.45583465782641397,0.273618064140946,-0.31225662974019935,0.35145006994232647,0.32129786579944486,-0.29695147709433894,0.5772691049213263
0.779,0.3231778439064045,0.3063466554805646,-0.2926705754929091,0.3459278433012212,0.32475435118878876,-0.2967194120729301,0.6086577882485784
0.78,0.38236451249443404,0.22473145394214922,-0.29995685912121567,0.34036136947605394,0.32818747083229083,-0.296478883697346,0.5722739270009217
0.781,0.3877646021545742,0.21671502843129367,-0.3136003091164936,0.33475136046730963,0.3315969777204776,-0.2962298988281987,0.5604436346732242
0.782,0.3173947125061847,0.33488326816943664,-0.28915769945445896,0.32909853384400245,0.3349826265427905,-0.2959724645673059,0.580693319514022
0.783,0.33787766330626834,0.39034278501791875,-0.24927634252560707,0.3234036126518898,0.33834417370523456,-0.29570658825748797,0.5931889128809231
0.784,0.34022455080393477,0.4112647488709344,-0.24448143467214167,0.3176673253209947,0.3416813773479039,-0.2954322774823583,0.5860753735590101
0.785,0.4138172629946083,0.3641308870673109,-0.24874529338780768,0.3118904055724257,0.3449939973623852,-0.2951495400661078,0.5887463363583467
0.786,0.43375840906845126,0.31470674384618214,-0.2442040925883693,0.3060735923245345,0.3482817954090312,-0.2948583840732807,0.582721595889848
0.787,0.4022412627488096,0.32520449555410963,-0.25440660317006547,0.30021762959839865,0.351544534934111,-0.2945588178085454,0.561356713841477
0.788,0.45272617946314175,0.22250980507554877,-0.2629775877644709,0.2943232664226523,0.35478198118682863,-0.2942508498164571,0.5786014087912995
0.789,0.4421089609965283,0.22298135035366973,-0.2699871820048553,0.28839125673768506,0.3579939012362126,-0.29393448888121426,0.5687227935084155
0.79,0.3832641502587404,0.2568540011930132,-0.24905625172675852,0.28242235929919957,0.3611800639878771,-0.2936097440264078,0.5572962926971763
0.791,0.31582933942406494,0.32370179369305485,-0.2613318862377213,0.2764173375811659,0.3643402402006464,-0.2932766245147643,0.5661695024189816
0.792,0.28222227363398794,0.3474051607820358,-0.2876459838246264,0.2703769596781642,0.36747420250305096,-0.29293513984788105,0.5615454308740628
0.793,0.20616773377661024,0.4042197008561425,-0.3255473874531715,0.2643019982071359,0.3705817254096853,-0.2925852997659557,0.5774172400898409
0.794,0.23464118409483617,0.35032039005759313,-0.32804579859408034,0.2581932302085657,0.37366258533743074,-0.29222711424750797,0.5524506927815764
0.795,0.20557031204923207,0.3903268494227277,-0.33652528551537897,0.25205143704708377,0.37671656062154424,-0.2918605935090951,0.5500936037136697
0.796,0.22556574834657725,0.41718790367033104,-0.33344914577497575,0.24587740431152916,0.37974343153160417,-0.291485748005021,0.5466530473343805
0.797,0.36188407462084415,0.3368276346024893,-0.26342685571920554,0.23967192171446328,0.3827429802873219,-0.291102588427037,0.5760024904730944
0.798,0.29170469717167624,0.4527229051257958,-0.26474899188848516,0.23343578299115578,0.3857149910742104,-0.29071112570403806,0.5437315715232142
0.799,0.3790700299133277,0.34198881769763817,-0.22083036148558868,0.22716978579806577,0.38865925005911045,-0.29031137100175014,0.5652092690832278
0.8,0.2997409364794663,0.341407887248253,-0.2739146516008842,0.22087473161080678,0.39157554540557804,-0.28990333572241217,0.5354738638130342
0.801,0.34762767815064477,0.25933661474358793,-0.2386330415252795,0.21455142562163795,0.3944636672891232,-0.28948703150445065,0.5521332049863681
0.802,0.31568075861156375,0.283498039186913,-0.24945989957233994,0.2082006766364699,0.3973234079123091,-0.28906247022214787,0.5474069389343256
0.803,0.24179760589158947,0.37741793083539826,-0.26886584773325795,0.20182329697140858,0.40015456151970175,-0.28862966398530304,0.5572602563478759
0.804,0.18822796164063882,0.43283690072381775,-0.281584813865642,0.19542010234885968,0.402956924412673,-0.288188625138887,0.5537232910510477
0.805,0.21018058795161462,0.4730504732707504,-0.2501785782563709,0.18899191179318287,0.4057302949640585,-0.2877393662626898,0.5398482375389431
0.806,0.20176079769611718,0.44070443135136894,-0.2329802777386293,0.1825395475259384,0.40847447363266237,-0.2872819001709624,0.5306233592116736
0.807,0.15343389888242262,0.4417883290037552,-0.3018131697138053,0.17606383486071478,0.4111892629776159,-0.2868162399120509,0.5547704248196439
0.808,0.1045159897849034,0.443867964057006,-0.2658179391971964,0.16956560209756086,0.4138744676725823,-0.2863423987680242,0.5258300318926223
0.809,0.11161385026534182,0.4379945135755407,-0.2536840857048449,0.16304568041704634,0.4165298945198095,-0.28586039025429544,0.5044631334951436
0.81,0.11474993915672638,0.4618084687007671,-0.29323295211980627,0.15650490377393814,0.4191553524640325,-0.28537022811923624,0.5075753520573347
0.811,0.13336346120391548,0.4521104950935794,-0.31780982711905087,0.14994410879053768,0.42175065260621736,-0.28487192634378483,0.5086996212908379
0.812,0.29887572861884504,0.3654046727880656,-0.28570365831921235,0.14336413464966652,0.42431560821715414,-0.28436549914104686,0.5334308251125495
0.813,0.27327119914597714,0.39240443157292315,-0.24313554244105534,0.13676582298732531,0.42685003475089073,-0.2838509609558909,0.5510581119672768
0.814,0.20405155505911507,0.3284927859350204,-0.306910333747033,0.1301500177850435,0.42935374985801145,-0.28332832646453493,0.49820689589367356
0.815,0.24509019652918618,0.3097291621125454,-0.2725390584043422,0.12351756526192978,0.43182657339875646,-0.2827976105741293,0.5114975895360154
0.816,0.19480500455453148,0.394633656372009,-0.23844735191154692,0.11686931376642588,0.43426832745598226,-0.2822588284223302,0.5201582827653104
0.817,0.08701200960512594,0.4946321311831292,-0.23615014172137364,0.11020611366780297,0.43667883634796384,-0.28171199537686925,0.5358376827668176
0.818,0.13787848912961362,0.44352054122366397,-0.24790619612568524,0.10352881724738872,0.43905792664103405,-0.2811571270351138,0.5060378756994647
0.819,0.106555297777034,0.51317843269259,-0.21732531418176068,0.09683827858954994,0.4414054271620613,-0.28059423922362303,0.5207841512918188
0.82,0.09982538819793665,0.5320953724533531,-0.22801221274889794,0.0901353534724552,0.4437211690107671,-0.28002334799769596,0.5088948106186373
0.821,0.16640834770486324,0.3644518291933849,-0.308248013839739,0.08342089925860485,0.44600498557187596,-0.2794444696409137,0.5413830499997366
0.822,0.03988204374155963,0.422225750933251,-0.26537043187664555,0.07669577478517428,0.4482567125271056,-0.2788576206646753,0.5100327232318518
0.823,0.06574340235794307,0.3494733563048361,-0.3000267140251012,0.06996084025415805,0.4504761878669878,-0.2782628178077262,0.5107675349466653
0.824,0.10765414861877602,0.3882987156695616,-0.3089912883976582,0.06321695712233935,0.45266325190252493,-0.27766007803568116,0.5057112835248192
0.825,0.11010443920516952,0.3565910221964462,-0.3028117592354429,0.05646498799110954,0.4548177472766806,-0.2770494185405403,0.49792479194503464
0.826,0.19338134201727888,0.41707002939997195,-0.28505271879482524,0.04970579649612556,0.45693951897569973,-0.2764308567401988,0.5125002067498868
0.827,0.20491318259959238,0.3968740308160197,-0.27401179584243396,0.0429402471968507,0.45902841434026304,-0.2758044102779496,0.48539406257467904
0.828,0.1705684860774341,0.3701455829558169,-0.2786450232053528,0.036169205465966844,0.46108428307647004,-0.2751700970219812,0.4734793760077757
0.829,0.12720193589037915,0.4509212675742768,-0.28746099773241746,0.029393537378682486,0.46310697726665223,-0.27452793506486683,0.4939010210886415
